Group,Participant,Trial,Condition,Response,CompQuestion.RT,Correct,Item,q1,Question,S1.RT,S2.RT,X5V,X4V,X3V,X2V,X1V,V,V1,V2,V3,V4,V5,S14.RT,S15.RT,S16.RT,S17.RT,S18.RT,S19.RT,S20.RT,S21.RT,S22.RT,S23.RT,S24.RT,S25.RT,S26.RT,S27.RT,S28.RT,S29.RT,S30.RT,S31.RT,S32.RT,S33.RT,S34.RT,S35.RT,Study,Violation,w1,w2,X5V,X4V,X3V,X2V,X1V,V,V1,V2,V3,V4,V5,w14,w15,w16,w17,w18,w19,w20,w21,w22,w23,w24,w25,w26,w27,w28,w29,w30,w31,w32,w33,w34,w35
Croatian,201,54,Past_Mismatch,m,5767,m,2,Did the cat eat only fish?,yes,,,361,352,453,355,354,332,330,381,382,334,364,365,367,0,0,0,0,0,0,0,0,0,0,0,0,0,0,0,0,0,0,0,0,Tense,,,,Since,last,"week,",the,cat,ate,only,fish.,She,now,also,eats,meat.,?,?,?,?,?,?,?,?,?,?,?,?,?,?,?,?,?,?,?,?
Croatian,205,35,Past_Mismatch,m,15007,m,2,Did the cat eat only fish?,yes,,,575,337,551,421,480,644,531,543,511,543,537,485,679,0,0,0,0,0,0,0,0,0,0,0,0,0,0,0,0,0,0,0,0,Tense,,,,Since,last,"week,",the,cat,ate,only,fish.,She,now,also,eats,meat.,?,?,?,?,?,?,?,?,?,?,?,?,?,?,?,?,?,?,?,?
Croatian,209,42,Past_Mismatch,m,5029,m,2,Did the cat eat only fish?,yes,,,314,310,219,260,945,433,257,275,293,270,243,211,264,0,0,0,0,0,0,0,0,0,0,0,0,0,0,0,0,0,0,0,0,Tense,,,,Since,last,"week,",the,cat,ate,only,fish.,She,now,also,eats,meat.,?,?,?,?,?,?,?,?,?,?,?,?,?,?,?,?,?,?,?,?
Croatian,221,24,Past_Mismatch,m,2863,m,2,Did the cat eat only fish?,yes,,,199,315,167,166,674,206,277,339,419,267,301,282,300,0,0,0,0,0,0,0,0,0,0,0,0,0,0,0,0,0,0,0,0,Tense,,,,Since,last,"week,",the,cat,ate,only,fish.,She,now,also,eats,meat.,?,?,?,?,?,?,?,?,?,?,?,?,?,?,?,?,?,?,?,?
Croatian,225,12,Past_Mismatch,m,3804,m,2,Did the cat eat only fish?,yes,,,350,401,411,483,317,251,336,346,427,303,273,286,600,0,0,0,0,0,0,0,0,0,0,0,0,0,0,0,0,0,0,0,0,Tense,,,,Since,last,"week,",the,cat,ate,only,fish.,She,now,also,eats,meat.,?,?,?,?,?,?,?,?,?,?,?,?,?,?,?,?,?,?,?,?
Croatian,229,8,Past_Mismatch,m,4518,m,2,Did the cat eat only fish?,yes,,,338,426,362,329,360,347,505,454,328,316,316,317,356,0,0,0,0,0,0,0,0,0,0,0,0,0,0,0,0,0,0,0,0,Tense,,,,Since,last,"week,",the,cat,ate,only,fish.,She,now,also,eats,meat.,?,?,?,?,?,?,?,?,?,?,?,?,?,?,?,?,?,?,?,?
Croatian,237,75,Past_Mismatch,m,2947,m,2,Did the cat eat only fish?,yes,,,279,201,230,263,223,258,254,224,387,236,248,282,367,0,0,0,0,0,0,0,0,0,0,0,0,0,0,0,0,0,0,0,0,Tense,,,,Since,last,"week,",the,cat,ate,only,fish.,She,now,also,eats,meat.,?,?,?,?,?,?,?,?,?,?,?,?,?,?,?,?,?,?,?,?
Croatian,202,53,Past_Match,m,1628,m,2,Did the cat eat only fish?,yes,,,,,230,171,167,151,351,164,161,301,153,157,161,0,0,0,0,0,0,0,0,0,0,0,0,0,0,0,0,0,0,0,0,Tense,,,,,,"Initially,",the,cat,ate,only,fish.,She,now,also,eats,meat.,?,?,?,?,?,?,?,?,?,?,?,?,?,?,?,?,?,?,?,?
Croatian,206,60,Past_Match,x,11507,m,2,Did the cat eat only fish?,yes,,,,,260,303,292,292,240,295,349,303,300,292,313,0,0,0,0,0,0,0,0,0,0,0,0,0,0,0,0,0,0,0,0,Tense,,,,,,"Initially,",the,cat,ate,only,fish.,She,now,also,eats,meat.,?,?,?,?,?,?,?,?,?,?,?,?,?,?,?,?,?,?,?,?
Croatian,210,32,Past_Match,m,2527,m,2,Did the cat eat only fish?,yes,,,,,400,527,435,338,336,326,542,395,484,531,1116,0,0,0,0,0,0,0,0,0,0,0,0,0,0,0,0,0,0,0,0,Tense,,,,,,"Initially,",the,cat,ate,only,fish.,She,now,also,eats,meat.,?,?,?,?,?,?,?,?,?,?,?,?,?,?,?,?,?,?,?,?
Croatian,214,4,Past_Match,m,10184,m,2,Did the cat eat only fish?,yes,,,,,447,405,361,380,391,403,395,427,386,376,385,0,0,0,0,0,0,0,0,0,0,0,0,0,0,0,0,0,0,0,0,Tense,,,,,,"Initially,",the,cat,ate,only,fish.,She,now,also,eats,meat.,?,?,?,?,?,?,?,?,?,?,?,?,?,?,?,?,?,?,?,?
Croatian,222,29,Past_Match,m,1698,m,2,Did the cat eat only fish?,yes,,,,,992,219,220,201,209,216,229,214,205,216,219,0,0,0,0,0,0,0,0,0,0,0,0,0,0,0,0,0,0,0,0,Tense,,,,,,"Initially,",the,cat,ate,only,fish.,She,now,also,eats,meat.,?,?,?,?,?,?,?,?,?,?,?,?,?,?,?,?,?,?,?,?
Croatian,226,55,Past_Match,m,1959,m,2,Did the cat eat only fish?,yes,,,,,215,165,133,139,138,151,140,154,162,179,159,0,0,0,0,0,0,0,0,0,0,0,0,0,0,0,0,0,0,0,0,Tense,,,,,,"Initially,",the,cat,ate,only,fish.,She,now,also,eats,meat.,?,?,?,?,?,?,?,?,?,?,?,?,?,?,?,?,?,?,?,?
Croatian,230,43,Past_Match,m,4624,m,2,Did the cat eat only fish?,yes,,,,,924,1260,309,420,339,309,1100,297,341,316,502,0,0,0,0,0,0,0,0,0,0,0,0,0,0,0,0,0,0,0,0,Tense,,,,,,"Initially,",the,cat,ate,only,fish.,She,now,also,eats,meat.,?,?,?,?,?,?,?,?,?,?,?,?,?,?,?,?,?,?,?,?
Croatian,234,20,Past_Match,m,1453,m,2,Did the cat eat only fish?,yes,,,,,271,160,174,202,200,195,173,220,209,260,278,0,0,0,0,0,0,0,0,0,0,0,0,0,0,0,0,0,0,0,0,Tense,,,,,,"Initially,",the,cat,ate,only,fish.,She,now,also,eats,meat.,?,?,?,?,?,?,?,?,?,?,?,?,?,?,?,?,?,?,?,?
Croatian,202,36,Past_Mismatch,m,2695,x,23,Does Ben pay the same amount for his insurance? ,yes,,,,,219,329,139,250,835,250,279,108,378,224,470,196,232,206,310,294,0,0,0,0,0,0,0,0,0,0,0,0,0,0,0,Tense,,,,,,Since,"February,",Ben,crashed,his,car,four,times.,He,now,pays,a,lot,for,his,insurance.,?,?,?,?,?,?,?,?,?,?,?,?,?,?,?
Croatian,203,61,Past_Match,x,3868,x,23,Does Ben pay the same amount for his insurance? ,yes,,,,,427,292,465,284,572,357,311,313,407,460,1001,272,251,252,231,485,0,0,0,0,0,0,0,0,0,0,0,0,0,0,0,Tense,?,,,,,In,"February,",Ben,crashed,his,car,four,times.,He,now,pays,a,lot,for,his,insurance.,?,?,?,?,?,?,?,?,?,?,?,?,?,?,?
Croatian,206,30,Past_Mismatch,x,2414,x,23,Does Ben pay the same amount for his insurance? ,yes,,,,,359,335,290,314,346,346,371,327,423,331,332,348,326,390,353,385,0,0,0,0,0,0,0,0,0,0,0,0,0,0,0,Tense,,,,,,Since,"February,",Ben,crashed,his,car,four,times.,He,now,pays,a,lot,for,his,insurance.,?,?,?,?,?,?,?,?,?,?,?,?,?,?,?
Croatian,207,33,Past_Match,x,4016,x,23,Does Ben pay the same amount for his insurance? ,yes,,,,,315,225,227,260,246,231,218,244,241,198,506,223,272,288,261,259,0,0,0,0,0,0,0,0,0,0,0,0,0,0,0,Tense,?,,,,,In,"February,",Ben,crashed,his,car,four,times.,He,now,pays,a,lot,for,his,insurance.,?,?,?,?,?,?,?,?,?,?,?,?,?,?,?
Croatian,210,45,Past_Mismatch,x,2724,x,23,Does Ben pay the same amount for his insurance? ,yes,,,,,371,440,541,421,640,458,383,375,342,347,276,290,336,269,560,355,0,0,0,0,0,0,0,0,0,0,0,0,0,0,0,Tense,,,,,,Since,"February,",Ben,crashed,his,car,four,times.,He,now,pays,a,lot,for,his,insurance.,?,?,?,?,?,?,?,?,?,?,?,?,?,?,?
Croatian,214,17,Past_Mismatch,x,8772,x,23,Does Ben pay the same amount for his insurance? ,yes,,,,,662,382,382,464,349,311,335,330,353,306,282,318,327,299,377,421,0,0,0,0,0,0,0,0,0,0,0,0,0,0,0,Tense,,,,,,Since,"February,",Ben,crashed,his,car,four,times.,He,now,pays,a,lot,for,his,insurance.,?,?,?,?,?,?,?,?,?,?,?,?,?,?,?
Croatian,215,59,Past_Match,x,3894,x,23,Does Ben pay the same amount for his insurance? ,yes,,,,,684,1293,585,513,519,624,611,985,588,361,353,323,267,295,274,496,0,0,0,0,0,0,0,0,0,0,0,0,0,0,0,Tense,?,,,,,In,"February,",Ben,crashed,his,car,four,times.,He,now,pays,a,lot,for,his,insurance.,?,?,?,?,?,?,?,?,?,?,?,?,?,?,?
Croatian,222,28,Past_Mismatch,x,2330,x,23,Does Ben pay the same amount for his insurance? ,yes,,,,,248,1281,205,284,302,274,234,212,228,247,220,230,204,216,213,214,0,0,0,0,0,0,0,0,0,0,0,0,0,0,0,Tense,,,,,,Since,"February,",Ben,crashed,his,car,four,times.,He,now,pays,a,lot,for,his,insurance.,?,?,?,?,?,?,?,?,?,?,?,?,?,?,?
Croatian,226,76,Past_Mismatch,x,1793,x,23,Does Ben pay the same amount for his insurance? ,yes,,,,,122,155,165,168,174,157,131,179,146,174,155,138,193,172,165,134,0,0,0,0,0,0,0,0,0,0,0,0,0,0,0,Tense,,,,,,Since,"February,",Ben,crashed,his,car,four,times.,He,now,pays,a,lot,for,his,insurance.,?,?,?,?,?,?,?,?,?,?,?,?,?,?,?
Croatian,227,72,Past_Match,x,3908,x,23,Does Ben pay the same amount for his insurance? ,yes,,,,,295,327,946,210,281,241,198,238,210,232,496,217,247,425,220,250,0,0,0,0,0,0,0,0,0,0,0,0,0,0,0,Tense,?,,,,,In,"February,",Ben,crashed,his,car,four,times.,He,now,pays,a,lot,for,his,insurance.,?,?,?,?,?,?,?,?,?,?,?,?,?,?,?
Croatian,230,59,Past_Mismatch,x,2744,x,23,Does Ben pay the same amount for his insurance? ,yes,,,,,1785,2255,826,874,433,350,407,273,976,327,276,280,261,234,260,645,0,0,0,0,0,0,0,0,0,0,0,0,0,0,0,Tense,,,,,,Since,"February,",Ben,crashed,his,car,four,times.,He,now,pays,a,lot,for,his,insurance.,?,?,?,?,?,?,?,?,?,?,?,?,?,?,?
Croatian,231,17,Past_Match,x,5758,x,23,Does Ben pay the same amount for his insurance? ,yes,,,,,486,226,264,248,269,282,306,352,278,264,250,255,291,264,267,510,0,0,0,0,0,0,0,0,0,0,0,0,0,0,0,Tense,?,,,,,In,"February,",Ben,crashed,his,car,four,times.,He,now,pays,a,lot,for,his,insurance.,?,?,?,?,?,?,?,?,?,?,?,?,?,?,?
Croatian,234,76,Past_Mismatch,x,1487,x,23,Does Ben pay the same amount for his insurance? ,yes,,,,,876,158,166,131,158,191,199,157,180,188,155,160,174,172,193,190,0,0,0,0,0,0,0,0,0,0,0,0,0,0,0,Tense,,,,,,Since,"February,",Ben,crashed,his,car,four,times.,He,now,pays,a,lot,for,his,insurance.,?,?,?,?,?,?,?,?,?,?,?,?,?,?,?
Croatian,235,8,Past_Match,x,6627,x,23,Does Ben pay the same amount for his insurance? ,yes,,,,,289,290,317,347,440,380,359,542,599,404,431,453,568,412,341,379,0,0,0,0,0,0,0,0,0,0,0,0,0,0,0,Tense,?,,,,,In,"February,",Ben,crashed,his,car,four,times.,He,now,pays,a,lot,for,his,insurance.,?,?,?,?,?,?,?,?,?,?,?,?,?,?,?
Croatian,239,3,Past_Match,m,14768,x,23,Does Ben pay the same amount for his insurance? ,yes,,,,,433,419,370,428,561,421,637,628,392,1234,309,294,281,272,294,385,0,0,0,0,0,0,0,0,0,0,0,0,0,0,0,Tense,?,,,,,In,"February,",Ben,crashed,his,car,four,times.,He,now,pays,a,lot,for,his,insurance.,?,?,?,?,?,?,?,?,?,?,?,?,?,?,?
Croatian,243,33,Past_Match,x,3317,x,23,Does Ben pay the same amount for his insurance? ,yes,,,,,358,329,336,1169,321,419,316,366,397,282,328,294,302,306,281,340,0,0,0,0,0,0,0,0,0,0,0,0,0,0,0,Tense,?,,,,,In,"February,",Ben,crashed,his,car,four,times.,He,now,pays,a,lot,for,his,insurance.,?,?,?,?,?,?,?,?,?,?,?,?,?,?,?
Croatian,202,21,Past_Mismatch,x,1952,x,19,Does Alan like baking bread now?,yes,,330,429,294,335,310,299,310,355,153,292,185,291,275,224,270,155,293,0,0,0,0,0,0,0,0,0,0,0,0,0,0,0,0,0,Tense,,,Since,he,first,started,"cooking,",Alan,enjoyed,making,pasta,most,of,all.,He,now,likes,making,desserts.,?,?,?,?,?,?,?,?,?,?,?,?,?,?,?,?,?
Croatian,203,81,Past_Match,x,3510,x,19,Does Alan like baking bread now?,yes,,381,262,391,476,315,411,445,237,323,590,286,321,406,373,282,254,293,0,0,0,0,0,0,0,0,0,0,0,0,0,0,0,0,0,Tense,?,,When,he,first,started,"cooking,",Alan,enjoyed,making,pasta,most,of,all.,He,now,likes,making,desserts.,?,?,?,?,?,?,?,?,?,?,?,?,?,?,?,?,?
Croatian,206,75,Past_Mismatch,x,2126,x,19,Does Alan like baking bread now?,yes,,570,287,279,279,268,284,356,318,348,293,334,277,315,277,232,246,322,0,0,0,0,0,0,0,0,0,0,0,0,0,0,0,0,0,Tense,,,Since,he,first,started,"cooking,",Alan,enjoyed,making,pasta,most,of,all.,He,now,likes,making,desserts.,?,?,?,?,?,?,?,?,?,?,?,?,?,?,?,?,?
Croatian,207,55,Past_Match,x,1803,x,19,Does Alan like baking bread now?,yes,,381,583,498,223,387,313,370,289,359,254,294,286,393,405,354,283,333,0,0,0,0,0,0,0,0,0,0,0,0,0,0,0,0,0,Tense,?,,When,he,first,started,"cooking,",Alan,enjoyed,making,pasta,most,of,all.,He,now,likes,making,desserts.,?,?,?,?,?,?,?,?,?,?,?,?,?,?,?,?,?
Croatian,210,2,Past_Mismatch,x,3316,x,19,Does Alan like baking bread now?,yes,,642,595,592,530,716,919,588,655,744,542,527,532,807,461,725,600,779,0,0,0,0,0,0,0,0,0,0,0,0,0,0,0,0,0,Tense,,,Since,he,first,started,"cooking,",Alan,enjoyed,making,pasta,most,of,all.,He,now,likes,making,desserts.,?,?,?,?,?,?,?,?,?,?,?,?,?,?,?,?,?
Croatian,214,78,Past_Mismatch,x,2564,x,19,Does Alan like baking bread now?,yes,,302,405,329,405,306,325,303,352,306,324,277,260,285,467,242,215,271,0,0,0,0,0,0,0,0,0,0,0,0,0,0,0,0,0,Tense,,,Since,he,first,started,"cooking,",Alan,enjoyed,making,pasta,most,of,all.,He,now,likes,making,desserts.,?,?,?,?,?,?,?,?,?,?,?,?,?,?,?,?,?
Croatian,215,40,Past_Match,x,3085,x,19,Does Alan like baking bread now?,yes,,370,346,325,789,704,661,879,754,284,526,325,309,364,90,788,311,326,0,0,0,0,0,0,0,0,0,0,0,0,0,0,0,0,0,Tense,?,,When,he,first,started,"cooking,",Alan,enjoyed,making,pasta,most,of,all.,He,now,likes,making,desserts.,?,?,?,?,?,?,?,?,?,?,?,?,?,?,?,?,?
Croatian,222,56,Past_Mismatch,x,1880,x,19,Does Alan like baking bread now?,yes,,202,187,213,189,236,294,261,224,135,199,258,203,380,204,203,133,354,0,0,0,0,0,0,0,0,0,0,0,0,0,0,0,0,0,Tense,,,Since,he,first,started,"cooking,",Alan,enjoyed,making,pasta,most,of,all.,He,now,likes,making,desserts.,?,?,?,?,?,?,?,?,?,?,?,?,?,?,?,?,?
Croatian,226,83,Past_Mismatch,x,2329,x,19,Does Alan like baking bread now?,yes,,254,162,185,173,130,182,133,133,161,182,190,161,149,168,165,173,175,0,0,0,0,0,0,0,0,0,0,0,0,0,0,0,0,0,Tense,,,Since,he,first,started,"cooking,",Alan,enjoyed,making,pasta,most,of,all.,He,now,likes,making,desserts.,?,?,?,?,?,?,?,?,?,?,?,?,?,?,?,?,?
Croatian,227,45,Past_Match,x,2367,x,19,Does Alan like baking bread now?,yes,,561,260,379,321,328,403,316,319,300,316,323,349,595,265,296,295,327,0,0,0,0,0,0,0,0,0,0,0,0,0,0,0,0,0,Tense,?,,When,he,first,started,"cooking,",Alan,enjoyed,making,pasta,most,of,all.,He,now,likes,making,desserts.,?,?,?,?,?,?,?,?,?,?,?,?,?,?,?,?,?
Croatian,230,76,Past_Mismatch,x,3095,x,19,Does Alan like baking bread now?,yes,,340,244,455,218,238,2584,514,238,336,486,379,306,2272,408,261,389,411,0,0,0,0,0,0,0,0,0,0,0,0,0,0,0,0,0,Tense,,,Since,he,first,started,"cooking,",Alan,enjoyed,making,pasta,most,of,all.,He,now,likes,making,desserts.,?,?,?,?,?,?,?,?,?,?,?,?,?,?,?,?,?
Croatian,231,53,Past_Match,m,10766,x,19,Does Alan like baking bread now?,yes,,288,302,315,299,311,288,259,281,282,342,257,248,288,263,260,251,270,0,0,0,0,0,0,0,0,0,0,0,0,0,0,0,0,0,Tense,?,,When,he,first,started,"cooking,",Alan,enjoyed,making,pasta,most,of,all.,He,now,likes,making,desserts.,?,?,?,?,?,?,?,?,?,?,?,?,?,?,?,?,?
Croatian,234,29,Past_Mismatch,x,1827,x,19,Does Alan like baking bread now?,yes,,171,198,705,162,139,187,512,122,147,505,208,313,343,160,145,161,314,0,0,0,0,0,0,0,0,0,0,0,0,0,0,0,0,0,Tense,,,Since,he,first,started,"cooking,",Alan,enjoyed,making,pasta,most,of,all.,He,now,likes,making,desserts.,?,?,?,?,?,?,?,?,?,?,?,?,?,?,?,?,?
Croatian,235,24,Past_Match,x,2632,x,19,Does Alan like baking bread now?,yes,,334,350,357,475,344,864,323,286,304,369,295,298,323,270,313,350,403,0,0,0,0,0,0,0,0,0,0,0,0,0,0,0,0,0,Tense,?,,When,he,first,started,"cooking,",Alan,enjoyed,making,pasta,most,of,all.,He,now,likes,making,desserts.,?,?,?,?,?,?,?,?,?,?,?,?,?,?,?,?,?
Croatian,239,29,Past_Match,x,2663,x,19,Does Alan like baking bread now?,yes,,525,326,293,397,279,304,529,332,392,364,332,292,930,332,365,293,313,0,0,0,0,0,0,0,0,0,0,0,0,0,0,0,0,0,Tense,?,,When,he,first,started,"cooking,",Alan,enjoyed,making,pasta,most,of,all.,He,now,likes,making,desserts.,?,?,?,?,?,?,?,?,?,?,?,?,?,?,?,?,?
Croatian,243,42,Past_Match,x,2836,x,19,Does Alan like baking bread now?,yes,,319,304,308,366,318,290,312,310,328,336,275,309,500,251,282,277,310,0,0,0,0,0,0,0,0,0,0,0,0,0,0,0,0,0,Tense,?,,When,he,first,started,"cooking,",Alan,enjoyed,making,pasta,most,of,all.,He,now,likes,making,desserts.,?,?,?,?,?,?,?,?,?,?,?,?,?,?,?,?,?
Croatian,204,54,Past_Mismatch,m,1816,m,21,Did Sandra think about quitting her job?,yes,,,337,133,165,199,188,188,236,243,152,165,220,215,164,181,0,0,0,0,0,0,0,0,0,0,0,0,0,0,0,0,0,0,0,Tense,,,,For,the,last,"month,",Sandra,felt,unhappy,at,work.,She,even,thought,about,leaving.,?,?,?,?,?,?,?,?,?,?,?,?,?,?,?,?,?,?,?
Croatian,220,22,Past_Mismatch,m,936,m,21,Did Sandra think about quitting her job?,yes,,,316,322,417,299,288,289,243,262,246,389,223,283,299,325,0,0,0,0,0,0,0,0,0,0,0,0,0,0,0,0,0,0,0,Tense,,,,For,the,last,"month,",Sandra,felt,unhappy,at,work.,She,even,thought,about,leaving.,?,?,?,?,?,?,?,?,?,?,?,?,?,?,?,?,?,?,?
Croatian,224,10,Past_Mismatch,m,3110,m,21,Did Sandra think about quitting her job?,yes,,,455,3187,521,504,882,452,505,419,572,508,454,469,428,603,0,0,0,0,0,0,0,0,0,0,0,0,0,0,0,0,0,0,0,Tense,,,,For,the,last,"month,",Sandra,felt,unhappy,at,work.,She,even,thought,about,leaving.,?,?,?,?,?,?,?,?,?,?,?,?,?,?,?,?,?,?,?
Croatian,228,26,Past_Mismatch,m,1890,m,21,Did Sandra think about quitting her job?,yes,,,414,408,602,432,434,336,366,321,298,397,379,367,293,332,0,0,0,0,0,0,0,0,0,0,0,0,0,0,0,0,0,0,0,Tense,,,,For,the,last,"month,",Sandra,felt,unhappy,at,work.,She,even,thought,about,leaving.,?,?,?,?,?,?,?,?,?,?,?,?,?,?,?,?,?,?,?
Croatian,232,84,Past_Mismatch,m,2820,m,21,Did Sandra think about quitting her job?,yes,,,382,237,201,286,355,367,457,423,375,315,761,246,386,347,0,0,0,0,0,0,0,0,0,0,0,0,0,0,0,0,0,0,0,Tense,,,,For,the,last,"month,",Sandra,felt,unhappy,at,work.,She,even,thought,about,leaving.,?,?,?,?,?,?,?,?,?,?,?,?,?,?,?,?,?,?,?
Croatian,240,48,Past_Mismatch,m,2004,m,21,Did Sandra think about quitting her job?,yes,,,281,221,187,172,263,590,359,352,277,484,341,296,296,284,0,0,0,0,0,0,0,0,0,0,0,0,0,0,0,0,0,0,0,Tense,,,,For,the,last,"month,",Sandra,felt,unhappy,at,work.,She,even,thought,about,leaving.,?,?,?,?,?,?,?,?,?,?,?,?,?,?,?,?,?,?,?
Croatian,202,84,Past_Mismatch,m,2550,m,11,Did Tom feel very unwell?,yes,,321,367,318,336,345,254,281,284,471,205,594,283,243,275,282,320,0,0,0,0,0,0,0,0,0,0,0,0,0,0,0,0,0,0,Tense,,,For,the,last,three,"days,",Tom,felt,very,unwell.,He,could,not,even,go,to,work.,?,?,?,?,?,?,?,?,?,?,?,?,?,?,?,?,?,?
Croatian,206,70,Past_Mismatch,m,1867,m,11,Did Tom feel very unwell?,yes,,330,386,358,345,329,309,306,292,290,340,302,309,347,325,377,284,0,0,0,0,0,0,0,0,0,0,0,0,0,0,0,0,0,0,Tense,,,For,the,last,three,"days,",Tom,felt,very,unwell.,He,could,not,even,go,to,work.,?,?,?,?,?,?,?,?,?,?,?,?,?,?,?,?,?,?
Croatian,210,27,Past_Mismatch,m,3746,m,11,Did Tom feel very unwell?,yes,,338,326,381,418,329,393,430,473,835,337,338,371,340,332,328,439,0,0,0,0,0,0,0,0,0,0,0,0,0,0,0,0,0,0,Tense,,,For,the,last,three,"days,",Tom,felt,very,unwell.,He,could,not,even,go,to,work.,?,?,?,?,?,?,?,?,?,?,?,?,?,?,?,?,?,?
Croatian,214,47,Past_Mismatch,m,2032,m,11,Did Tom feel very unwell?,yes,,380,385,863,793,386,293,340,377,364,371,314,301,298,314,315,310,0,0,0,0,0,0,0,0,0,0,0,0,0,0,0,0,0,0,Tense,,,For,the,last,three,"days,",Tom,felt,very,unwell.,He,could,not,even,go,to,work.,?,?,?,?,?,?,?,?,?,?,?,?,?,?,?,?,?,?
Croatian,222,72,Past_Mismatch,m,1378,m,11,Did Tom feel very unwell?,yes,,249,212,195,191,177,193,197,157,207,195,198,190,190,192,203,214,0,0,0,0,0,0,0,0,0,0,0,0,0,0,0,0,0,0,Tense,,,For,the,last,three,"days,",Tom,felt,very,unwell.,He,could,not,even,go,to,work.,?,?,?,?,?,?,?,?,?,?,?,?,?,?,?,?,?,?
Croatian,226,1,Past_Mismatch,m,2367,m,11,Did Tom feel very unwell?,yes,,399,360,344,362,409,361,340,360,390,431,352,353,374,364,328,335,0,0,0,0,0,0,0,0,0,0,0,0,0,0,0,0,0,0,Tense,,,For,the,last,three,"days,",Tom,felt,very,unwell.,He,could,not,even,go,to,work.,?,?,?,?,?,?,?,?,?,?,?,?,?,?,?,?,?,?
Croatian,230,46,Past_Mismatch,m,4614,m,11,Did Tom feel very unwell?,yes,,673,387,353,352,2018,690,422,627,2081,320,410,264,291,258,229,276,0,0,0,0,0,0,0,0,0,0,0,0,0,0,0,0,0,0,Tense,,,For,the,last,three,"days,",Tom,felt,very,unwell.,He,could,not,even,go,to,work.,?,?,?,?,?,?,?,?,?,?,?,?,?,?,?,?,?,?
Croatian,234,25,Past_Mismatch,m,1754,m,11,Did Tom feel very unwell?,yes,,229,242,217,196,212,228,222,228,210,220,217,194,231,190,214,198,0,0,0,0,0,0,0,0,0,0,0,0,0,0,0,0,0,0,Tense,,,For,the,last,three,"days,",Tom,felt,very,unwell.,He,could,not,even,go,to,work.,?,?,?,?,?,?,?,?,?,?,?,?,?,?,?,?,?,?
Croatian,203,83,Past_Match,m,2173,m,11,Did Tom feel very unwell?,yes,,,,748,482,320,578,483,323,322,678,317,335,301,294,370,311,0,0,0,0,0,0,0,0,0,0,0,0,0,0,0,0,0,0,Tense,?,,,,Three,days,"ago,",Tom,felt,very,unwell.,He,could,not,even,go,to,work.,?,?,?,?,?,?,?,?,?,?,?,?,?,?,?,?,?,?
Croatian,207,2,Past_Match,m,1338,m,11,Did Tom feel very unwell?,yes,,,,381,285,305,229,359,312,278,462,262,255,330,309,300,490,0,0,0,0,0,0,0,0,0,0,0,0,0,0,0,0,0,0,Tense,?,,,,Three,days,"ago,",Tom,felt,very,unwell.,He,could,not,even,go,to,work.,?,?,?,?,?,?,?,?,?,?,?,?,?,?,?,?,?,?
Croatian,215,2,Past_Match,m,2211,m,11,Did Tom feel very unwell?,yes,,,,491,521,304,327,288,294,288,520,303,281,260,310,246,234,0,0,0,0,0,0,0,0,0,0,0,0,0,0,0,0,0,0,Tense,?,,,,Three,days,"ago,",Tom,felt,very,unwell.,He,could,not,even,go,to,work.,?,?,?,?,?,?,?,?,?,?,?,?,?,?,?,?,?,?
Croatian,227,19,Past_Match,m,3042,m,11,Did Tom feel very unwell?,yes,,,,347,470,509,329,488,371,305,339,395,342,407,662,363,340,0,0,0,0,0,0,0,0,0,0,0,0,0,0,0,0,0,0,Tense,?,,,,Three,days,"ago,",Tom,felt,very,unwell.,He,could,not,even,go,to,work.,?,?,?,?,?,?,?,?,?,?,?,?,?,?,?,?,?,?
Croatian,231,6,Past_Match,m,2907,m,11,Did Tom feel very unwell?,yes,,,,352,539,404,280,343,322,295,329,369,392,566,347,345,281,0,0,0,0,0,0,0,0,0,0,0,0,0,0,0,0,0,0,Tense,?,,,,Three,days,"ago,",Tom,felt,very,unwell.,He,could,not,even,go,to,work.,?,?,?,?,?,?,?,?,?,?,?,?,?,?,?,?,?,?
Croatian,235,20,Past_Match,m,2249,m,11,Did Tom feel very unwell?,yes,,,,410,338,269,240,271,337,239,350,264,279,246,295,299,770,0,0,0,0,0,0,0,0,0,0,0,0,0,0,0,0,0,0,Tense,?,,,,Three,days,"ago,",Tom,felt,very,unwell.,He,could,not,even,go,to,work.,?,?,?,?,?,?,?,?,?,?,?,?,?,?,?,?,?,?
Croatian,239,52,Past_Match,m,2459,m,11,Did Tom feel very unwell?,yes,,,,376,206,210,311,408,170,490,329,247,267,260,265,268,257,0,0,0,0,0,0,0,0,0,0,0,0,0,0,0,0,0,0,Tense,?,,,,Three,days,"ago,",Tom,felt,very,unwell.,He,could,not,even,go,to,work.,?,?,?,?,?,?,?,?,?,?,?,?,?,?,?,?,?,?
Croatian,243,16,Past_Match,m,1659,m,11,Did Tom feel very unwell?,yes,,,,314,362,448,350,282,304,269,450,264,278,241,287,287,283,0,0,0,0,0,0,0,0,0,0,0,0,0,0,0,0,0,0,Tense,?,,,,Three,days,"ago,",Tom,felt,very,unwell.,He,could,not,even,go,to,work.,?,?,?,?,?,?,?,?,?,?,?,?,?,?,?,?,?,?
Croatian,201,13,Past_Match,x,2187,m,21,Did Sandra think about quitting her job?,yes,,,,,446,475,749,499,377,418,392,373,362,407,807,361,0,0,0,0,0,0,0,0,0,0,0,0,0,0,0,0,0,0,0,Tense,?,,,,,Last,"month,",Sandra,felt,unhappy,at,work.,She,even,thought,about,leaving.,?,?,?,?,?,?,?,?,?,?,?,?,?,?,?,?,?,?,?
Croatian,205,68,Past_Match,m,3087,m,21,Did Sandra think about quitting her job?,yes,,,,,295,367,284,406,499,327,252,391,257,187,403,493,0,0,0,0,0,0,0,0,0,0,0,0,0,0,0,0,0,0,0,Tense,?,,,,,Last,"month,",Sandra,felt,unhappy,at,work.,She,even,thought,about,leaving.,?,?,?,?,?,?,?,?,?,?,?,?,?,?,?,?,?,?,?
Croatian,209,66,Past_Match,m,2388,m,21,Did Sandra think about quitting her job?,yes,,,,,274,495,723,272,157,165,313,296,184,248,250,207,0,0,0,0,0,0,0,0,0,0,0,0,0,0,0,0,0,0,0,Tense,?,,,,,Last,"month,",Sandra,felt,unhappy,at,work.,She,even,thought,about,leaving.,?,?,?,?,?,?,?,?,?,?,?,?,?,?,?,?,?,?,?
Croatian,221,10,Past_Match,m,1579,m,21,Did Sandra think about quitting her job?,yes,,,,,351,476,477,258,245,214,265,335,1220,551,368,351,0,0,0,0,0,0,0,0,0,0,0,0,0,0,0,0,0,0,0,Tense,?,,,,,Last,"month,",Sandra,felt,unhappy,at,work.,She,even,thought,about,leaving.,?,?,?,?,?,?,?,?,?,?,?,?,?,?,?,?,?,?,?
Croatian,225,15,Past_Match,m,2846,m,21,Did Sandra think about quitting her job?,yes,,,,,319,390,386,1030,287,319,378,354,291,355,235,596,0,0,0,0,0,0,0,0,0,0,0,0,0,0,0,0,0,0,0,Tense,?,,,,,Last,"month,",Sandra,felt,unhappy,at,work.,She,even,thought,about,leaving.,?,?,?,?,?,?,?,?,?,?,?,?,?,?,?,?,?,?,?
Croatian,229,68,Past_Match,m,1549,m,21,Did Sandra think about quitting her job?,yes,,,,,312,313,351,300,433,354,338,308,317,299,314,334,0,0,0,0,0,0,0,0,0,0,0,0,0,0,0,0,0,0,0,Tense,?,,,,,Last,"month,",Sandra,felt,unhappy,at,work.,She,even,thought,about,leaving.,?,?,?,?,?,?,?,?,?,?,?,?,?,?,?,?,?,?,?
Croatian,237,50,Past_Match,m,1375,m,21,Did Sandra think about quitting her job?,yes,,,,,670,332,705,445,204,442,246,319,205,279,293,298,0,0,0,0,0,0,0,0,0,0,0,0,0,0,0,0,0,0,0,Tense,?,,,,,Last,"month,",Sandra,felt,unhappy,at,work.,She,even,thought,about,leaving.,?,?,?,?,?,?,?,?,?,?,?,?,?,?,?,?,?,?,?
Croatian,203,60,Perfect_Mismatch,m,3723,m,10,Has Jenny wanted to escape from her life?,yes,,300,318,351,160,426,236,473,441,380,260,654,294,549,648,559,283,331,364,0,0,0,0,0,0,0,0,0,0,0,0,0,0,0,0,Tense,no,,Before,her,baby,was,"born,",Jenny,has,wanted,to,escape,from,her,life.,She,was,very,stressed,out.,?,?,?,?,?,?,?,?,?,?,?,?,?,?,?,?
Croatian,204,19,Perfect_Match,m,2922,m,10,Has Jenny wanted to escape from her life?,yes,,413,285,256,309,299,300,286,283,299,329,319,304,315,737,278,280,275,321,0,0,0,0,0,0,0,0,0,0,0,0,0,0,0,0,Tense,,,Since,her,baby,was,"born,",Jenny,has,wanted,to,escape,from,her,life.,She,was,very,stressed,out.,?,?,?,?,?,?,?,?,?,?,?,?,?,?,?,?
Croatian,207,20,Perfect_Mismatch,m,1461,m,10,Has Jenny wanted to escape from her life?,yes,,274,269,253,331,249,307,294,294,266,313,260,275,311,287,276,255,306,306,0,0,0,0,0,0,0,0,0,0,0,0,0,0,0,0,Tense,no,,Before,her,baby,was,"born,",Jenny,has,wanted,to,escape,from,her,life.,She,was,very,stressed,out.,?,?,?,?,?,?,?,?,?,?,?,?,?,?,?,?
Croatian,215,79,Perfect_Mismatch,m,2382,m,10,Has Jenny wanted to escape from her life?,yes,,355,279,347,267,373,294,354,314,267,298,342,270,279,316,279,287,354,319,0,0,0,0,0,0,0,0,0,0,0,0,0,0,0,0,Tense,no,,Before,her,baby,was,"born,",Jenny,has,wanted,to,escape,from,her,life.,She,was,very,stressed,out.,?,?,?,?,?,?,?,?,?,?,?,?,?,?,?,?
Croatian,220,47,Perfect_Match,m,892,m,10,Has Jenny wanted to escape from her life?,yes,,230,204,229,214,233,190,228,231,203,191,211,228,218,327,254,184,181,185,0,0,0,0,0,0,0,0,0,0,0,0,0,0,0,0,Tense,,,Since,her,baby,was,"born,",Jenny,has,wanted,to,escape,from,her,life.,She,was,very,stressed,out.,?,?,?,?,?,?,?,?,?,?,?,?,?,?,?,?
Croatian,224,14,Perfect_Match,m,2090,m,10,Has Jenny wanted to escape from her life?,yes,,536,449,471,322,463,376,501,539,417,494,440,452,1075,561,476,433,465,549,0,0,0,0,0,0,0,0,0,0,0,0,0,0,0,0,Tense,,,Since,her,baby,was,"born,",Jenny,has,wanted,to,escape,from,her,life.,She,was,very,stressed,out.,?,?,?,?,?,?,?,?,?,?,?,?,?,?,?,?
Croatian,227,54,Perfect_Mismatch,m,2659,m,10,Has Jenny wanted to escape from her life?,yes,,362,251,289,356,334,305,428,253,436,271,334,313,319,422,422,302,338,365,0,0,0,0,0,0,0,0,0,0,0,0,0,0,0,0,Tense,no,,Before,her,baby,was,"born,",Jenny,has,wanted,to,escape,from,her,life.,She,was,very,stressed,out.,?,?,?,?,?,?,?,?,?,?,?,?,?,?,?,?
Croatian,228,33,Perfect_Match,m,2792,m,10,Has Jenny wanted to escape from her life?,yes,,543,410,416,290,257,354,340,289,267,278,271,282,303,312,288,285,356,330,0,0,0,0,0,0,0,0,0,0,0,0,0,0,0,0,Tense,,,Since,her,baby,was,"born,",Jenny,has,wanted,to,escape,from,her,life.,She,was,very,stressed,out.,?,?,?,?,?,?,?,?,?,?,?,?,?,?,?,?
Croatian,231,64,Perfect_Mismatch,m,1547,m,10,Has Jenny wanted to escape from her life?,yes,,289,246,286,290,345,314,366,418,337,314,304,315,319,344,207,265,259,250,0,0,0,0,0,0,0,0,0,0,0,0,0,0,0,0,Tense,no,,Before,her,baby,was,"born,",Jenny,has,wanted,to,escape,from,her,life.,She,was,very,stressed,out.,?,?,?,?,?,?,?,?,?,?,?,?,?,?,?,?
Croatian,232,24,Perfect_Match,m,2220,m,10,Has Jenny wanted to escape from her life?,yes,,719,559,409,359,535,288,755,313,320,362,356,333,393,531,473,234,519,332,0,0,0,0,0,0,0,0,0,0,0,0,0,0,0,0,Tense,,,Since,her,baby,was,"born,",Jenny,has,wanted,to,escape,from,her,life.,She,was,very,stressed,out.,?,?,?,?,?,?,?,?,?,?,?,?,?,?,?,?
Croatian,235,36,Perfect_Mismatch,m,1456,m,10,Has Jenny wanted to escape from her life?,yes,,285,338,322,315,396,277,292,267,321,345,313,344,337,362,289,265,298,303,0,0,0,0,0,0,0,0,0,0,0,0,0,0,0,0,Tense,no,,Before,her,baby,was,"born,",Jenny,has,wanted,to,escape,from,her,life.,She,was,very,stressed,out.,?,?,?,?,?,?,?,?,?,?,?,?,?,?,?,?
Croatian,239,51,Perfect_Mismatch,m,4001,m,10,Has Jenny wanted to escape from her life?,yes,,326,250,184,252,209,339,287,307,345,211,270,271,301,342,256,297,218,362,0,0,0,0,0,0,0,0,0,0,0,0,0,0,0,0,Tense,no,,Before,her,baby,was,"born,",Jenny,has,wanted,to,escape,from,her,life.,She,was,very,stressed,out.,?,?,?,?,?,?,?,?,?,?,?,?,?,?,?,?
Croatian,240,56,Perfect_Match,m,2652,m,10,Has Jenny wanted to escape from her life?,yes,,233,205,219,205,197,250,223,234,177,253,503,270,254,320,199,265,232,370,0,0,0,0,0,0,0,0,0,0,0,0,0,0,0,0,Tense,,,Since,her,baby,was,"born,",Jenny,has,wanted,to,escape,from,her,life.,She,was,very,stressed,out.,?,?,?,?,?,?,?,?,?,?,?,?,?,?,?,?
Croatian,243,58,Perfect_Mismatch,x,2447,m,10,Has Jenny wanted to escape from her life?,yes,,394,392,336,391,417,432,338,377,308,368,341,366,377,405,284,371,427,358,0,0,0,0,0,0,0,0,0,0,0,0,0,0,0,0,Tense,no,,Before,her,baby,was,"born,",Jenny,has,wanted,to,escape,from,her,life.,She,was,very,stressed,out.,?,?,?,?,?,?,?,?,?,?,?,?,?,?,?,?
Croatian,204,30,Perfect_Match,x,1577,x,22,Does Christine still like Gary?,yes,,,,498,161,141,151,163,179,176,179,180,154,178,184,166,166,0,0,0,0,0,0,0,0,0,0,0,0,0,0,0,0,0,0,Tense,,,,,For,months,"now,",Christine,has,wanted,to,marry,Gary.,Now,she,finds,him,unpleasant.,?,?,?,?,?,?,?,?,?,?,?,?,?,?,?,?,?,?
Croatian,220,28,Perfect_Match,x,732,x,22,Does Christine still like Gary?,yes,,,,265,275,259,308,298,298,291,292,323,433,253,259,364,474,0,0,0,0,0,0,0,0,0,0,0,0,0,0,0,0,0,0,Tense,,,,,For,months,"now,",Christine,has,wanted,to,marry,Gary.,Now,she,finds,him,unpleasant.,?,?,?,?,?,?,?,?,?,?,?,?,?,?,?,?,?,?
Croatian,224,2,Perfect_Match,x,1547,x,22,Does Christine still like Gary?,yes,,,,1324,3343,1195,676,850,803,748,750,735,733,817,574,512,637,0,0,0,0,0,0,0,0,0,0,0,0,0,0,0,0,0,0,Tense,,,,,For,months,"now,",Christine,has,wanted,to,marry,Gary.,Now,she,finds,him,unpleasant.,?,?,?,?,?,?,?,?,?,?,?,?,?,?,?,?,?,?
Croatian,228,56,Perfect_Match,x,1591,x,22,Does Christine still like Gary?,yes,,,,287,250,315,303,313,201,248,260,246,297,261,314,241,417,0,0,0,0,0,0,0,0,0,0,0,0,0,0,0,0,0,0,Tense,,,,,For,months,"now,",Christine,has,wanted,to,marry,Gary.,Now,she,finds,him,unpleasant.,?,?,?,?,?,?,?,?,?,?,?,?,?,?,?,?,?,?
Croatian,232,40,Perfect_Match,x,2105,x,22,Does Christine still like Gary?,yes,,,,698,304,306,441,354,324,353,359,367,399,297,369,373,618,0,0,0,0,0,0,0,0,0,0,0,0,0,0,0,0,0,0,Tense,,,,,For,months,"now,",Christine,has,wanted,to,marry,Gary.,Now,she,finds,him,unpleasant.,?,?,?,?,?,?,?,?,?,?,?,?,?,?,?,?,?,?
Croatian,240,54,Perfect_Match,x,1971,x,22,Does Christine still like Gary?,yes,,,,339,241,360,262,240,262,250,240,234,220,368,835,311,282,0,0,0,0,0,0,0,0,0,0,0,0,0,0,0,0,0,0,Tense,,,,,For,months,"now,",Christine,has,wanted,to,marry,Gary.,Now,she,finds,him,unpleasant.,?,?,?,?,?,?,?,?,?,?,?,?,?,?,?,?,?,?
Croatian,201,73,Perfect_Match,x,1595,x,19,Does Alan like baking bread now?,yes,,368,383,815,431,365,337,395,293,300,290,270,320,348,368,330,345,355,307,0,0,0,0,0,0,0,0,0,0,0,0,0,0,0,0,Tense,,,Since,he,first,started,"cooking,",Alan,has,enjoyed,making,pasta,most,of,all.,He,now,likes,making,desserts.,?,?,?,?,?,?,?,?,?,?,?,?,?,?,?,?
Croatian,204,6,Perfect_Mismatch,x,38957,x,19,Does Alan like baking bread now?,yes,,926,403,409,445,447,382,425,438,617,384,327,306,277,339,295,333,339,323,0,0,0,0,0,0,0,0,0,0,0,0,0,0,0,0,Tense,no,,When,he,first,started,"cooking,",Alan,has,enjoyed,making,pasta,most,of,all.,He,now,likes,making,desserts.,?,?,?,?,?,?,?,?,?,?,?,?,?,?,?,?
Croatian,205,17,Perfect_Match,x,6755,x,19,Does Alan like baking bread now?,yes,,616,507,604,532,505,584,542,528,526,552,504,541,545,768,506,494,547,804,0,0,0,0,0,0,0,0,0,0,0,0,0,0,0,0,Tense,,,Since,he,first,started,"cooking,",Alan,has,enjoyed,making,pasta,most,of,all.,He,now,likes,making,desserts.,?,?,?,?,?,?,?,?,?,?,?,?,?,?,?,?
Croatian,209,60,Perfect_Match,x,3970,x,19,Does Alan like baking bread now?,yes,,337,492,441,273,405,233,298,266,244,199,282,340,287,645,238,260,243,248,0,0,0,0,0,0,0,0,0,0,0,0,0,0,0,0,Tense,,,Since,he,first,started,"cooking,",Alan,has,enjoyed,making,pasta,most,of,all.,He,now,likes,making,desserts.,?,?,?,?,?,?,?,?,?,?,?,?,?,?,?,?
Croatian,220,13,Perfect_Mismatch,x,2105,x,19,Does Alan like baking bread now?,yes,,339,386,507,317,440,393,437,474,380,564,503,408,497,358,317,398,365,502,0,0,0,0,0,0,0,0,0,0,0,0,0,0,0,0,Tense,no,,When,he,first,started,"cooking,",Alan,has,enjoyed,making,pasta,most,of,all.,He,now,likes,making,desserts.,?,?,?,?,?,?,?,?,?,?,?,?,?,?,?,?
Croatian,221,21,Perfect_Match,x,4533,x,19,Does Alan like baking bread now?,yes,,326,217,226,230,398,278,316,262,308,204,329,210,218,219,462,442,223,304,0,0,0,0,0,0,0,0,0,0,0,0,0,0,0,0,Tense,,,Since,he,first,started,"cooking,",Alan,has,enjoyed,making,pasta,most,of,all.,He,now,likes,making,desserts.,?,?,?,?,?,?,?,?,?,?,?,?,?,?,?,?
Croatian,224,63,Perfect_Mismatch,x,2532,x,19,Does Alan like baking bread now?,yes,,488,426,538,512,545,526,480,530,506,544,498,466,461,478,618,490,505,1586,0,0,0,0,0,0,0,0,0,0,0,0,0,0,0,0,Tense,no,,When,he,first,started,"cooking,",Alan,has,enjoyed,making,pasta,most,of,all.,He,now,likes,making,desserts.,?,?,?,?,?,?,?,?,?,?,?,?,?,?,?,?
Croatian,225,71,Perfect_Match,x,2581,x,19,Does Alan like baking bread now?,yes,,2693,325,347,282,294,462,324,220,318,330,603,339,276,540,288,376,519,501,0,0,0,0,0,0,0,0,0,0,0,0,0,0,0,0,Tense,,,Since,he,first,started,"cooking,",Alan,has,enjoyed,making,pasta,most,of,all.,He,now,likes,making,desserts.,?,?,?,?,?,?,?,?,?,?,?,?,?,?,?,?
Croatian,228,15,Perfect_Mismatch,x,2429,x,19,Does Alan like baking bread now?,yes,,352,411,386,390,300,446,285,438,323,416,444,358,364,459,382,374,325,396,0,0,0,0,0,0,0,0,0,0,0,0,0,0,0,0,Tense,no,,When,he,first,started,"cooking,",Alan,has,enjoyed,making,pasta,most,of,all.,He,now,likes,making,desserts.,?,?,?,?,?,?,?,?,?,?,?,?,?,?,?,?
Croatian,229,1,Perfect_Match,x,4804,x,19,Does Alan like baking bread now?,yes,,428,316,311,372,346,379,352,318,320,330,320,351,343,667,483,427,317,361,0,0,0,0,0,0,0,0,0,0,0,0,0,0,0,0,Tense,,,Since,he,first,started,"cooking,",Alan,has,enjoyed,making,pasta,most,of,all.,He,now,likes,making,desserts.,?,?,?,?,?,?,?,?,?,?,?,?,?,?,?,?
Croatian,232,82,Perfect_Mismatch,x,3149,x,19,Does Alan like baking bread now?,yes,,1025,283,403,492,313,293,296,264,483,334,370,307,282,346,411,277,272,519,0,0,0,0,0,0,0,0,0,0,0,0,0,0,0,0,Tense,no,,When,he,first,started,"cooking,",Alan,has,enjoyed,making,pasta,most,of,all.,He,now,likes,making,desserts.,?,?,?,?,?,?,?,?,?,?,?,?,?,?,?,?
Croatian,237,51,Perfect_Match,x,1697,x,19,Does Alan like baking bread now?,yes,,302,297,176,236,269,414,243,234,340,256,338,257,266,343,256,281,409,397,0,0,0,0,0,0,0,0,0,0,0,0,0,0,0,0,Tense,,,Since,he,first,started,"cooking,",Alan,has,enjoyed,making,pasta,most,of,all.,He,now,likes,making,desserts.,?,?,?,?,?,?,?,?,?,?,?,?,?,?,?,?
Croatian,240,72,Perfect_Mismatch,x,2704,x,19,Does Alan like baking bread now?,yes,,318,309,307,238,348,290,345,488,311,410,377,365,320,982,251,307,243,278,0,0,0,0,0,0,0,0,0,0,0,0,0,0,0,0,Tense,no,,When,he,first,started,"cooking,",Alan,has,enjoyed,making,pasta,most,of,all.,He,now,likes,making,desserts.,?,?,?,?,?,?,?,?,?,?,?,?,?,?,?,?
Croatian,201,22,Perfect_Mismatch,x,2428,x,12,Has Kate studied Russian in her spare time?,yes,,,,,838,592,545,491,462,475,373,322,315,369,373,50,553,320,328,253,0,0,0,0,0,0,0,0,0,0,0,0,0,0,0,Tense,no,,,,,Last,"year,",Kate,has,studied,French,in,her,spare,time.,She,now,wants,to,learn,German.,?,?,?,?,?,?,?,?,?,?,?,?,?,?,?
Croatian,205,65,Perfect_Mismatch,x,2075,x,12,Has Kate studied Russian in her spare time?,yes,,,,,397,414,310,404,343,361,422,371,310,356,322,320,315,748,268,870,0,0,0,0,0,0,0,0,0,0,0,0,0,0,0,Tense,no,,,,,Last,"year,",Kate,has,studied,French,in,her,spare,time.,She,now,wants,to,learn,German.,?,?,?,?,?,?,?,?,?,?,?,?,?,?,?
Croatian,209,32,Perfect_Mismatch,x,2229,x,12,Has Kate studied Russian in her spare time?,yes,,,,,339,420,212,303,250,257,208,257,217,231,226,225,384,298,332,289,0,0,0,0,0,0,0,0,0,0,0,0,0,0,0,Tense,no,,,,,Last,"year,",Kate,has,studied,French,in,her,spare,time.,She,now,wants,to,learn,German.,?,?,?,?,?,?,?,?,?,?,?,?,?,?,?
Croatian,221,54,Perfect_Mismatch,x,1942,x,12,Has Kate studied Russian in her spare time?,yes,,,,,273,225,252,221,243,211,407,191,185,259,304,228,210,199,215,198,0,0,0,0,0,0,0,0,0,0,0,0,0,0,0,Tense,no,,,,,Last,"year,",Kate,has,studied,French,in,her,spare,time.,She,now,wants,to,learn,German.,?,?,?,?,?,?,?,?,?,?,?,?,?,?,?
Croatian,225,11,Perfect_Mismatch,x,1309,x,12,Has Kate studied Russian in her spare time?,yes,,,,,366,340,382,274,339,331,303,409,372,342,321,247,240,281,403,334,0,0,0,0,0,0,0,0,0,0,0,0,0,0,0,Tense,no,,,,,Last,"year,",Kate,has,studied,French,in,her,spare,time.,She,now,wants,to,learn,German.,?,?,?,?,?,?,?,?,?,?,?,?,?,?,?
Croatian,229,7,Perfect_Mismatch,x,1996,x,12,Has Kate studied Russian in her spare time?,yes,,,,,397,373,1964,364,329,344,345,316,316,336,316,330,322,329,347,385,0,0,0,0,0,0,0,0,0,0,0,0,0,0,0,Tense,no,,,,,Last,"year,",Kate,has,studied,French,in,her,spare,time.,She,now,wants,to,learn,German.,?,?,?,?,?,?,?,?,?,?,?,?,?,?,?
Croatian,237,28,Perfect_Mismatch,x,1806,x,12,Has Kate studied Russian in her spare time?,yes,,,,,377,245,174,200,200,194,180,205,172,173,237,214,200,169,219,201,0,0,0,0,0,0,0,0,0,0,0,0,0,0,0,Tense,no,,,,,Last,"year,",Kate,has,studied,French,in,her,spare,time.,She,now,wants,to,learn,German.,?,?,?,?,?,?,?,?,?,?,?,?,?,?,?
Croatian,201,63,Perfect_Match,x,3787,x,23,Does Ben pay the same amount for his insurance? ,yes,,,,,202,189,193,261,1499,256,488,202,222,250,163,315,450,411,180,225,353,0,0,0,0,0,0,0,0,0,0,0,0,0,0,Tense,,,,,,Since,"February,",Ben,has,crashed,his,car,four,times.,He,now,pays,a,lot,for,his,insurance.,?,?,?,?,?,?,?,?,?,?,?,?,?,?
Croatian,204,10,Perfect_Mismatch,x,10066,x,23,Does Ben pay the same amount for his insurance? ,yes,,,,,392,445,519,442,416,426,349,429,647,498,730,412,434,1321,281,310,369,0,0,0,0,0,0,0,0,0,0,0,0,0,0,Tense,no,,,,,In,"February,",Ben,has,crashed,his,car,four,times.,He,now,pays,a,lot,for,his,insurance.,?,?,?,?,?,?,?,?,?,?,?,?,?,?
Croatian,205,39,Perfect_Match,x,3784,x,23,Does Ben pay the same amount for his insurance? ,yes,,,,,485,485,616,906,624,692,411,501,495,446,487,516,544,418,372,424,654,0,0,0,0,0,0,0,0,0,0,0,0,0,0,Tense,,,,,,Since,"February,",Ben,has,crashed,his,car,four,times.,He,now,pays,a,lot,for,his,insurance.,?,?,?,?,?,?,?,?,?,?,?,?,?,?
Croatian,209,12,Perfect_Match,x,3053,x,23,Does Ben pay the same amount for his insurance? ,yes,,,,,402,322,457,275,642,344,249,331,684,880,523,301,232,269,245,281,429,0,0,0,0,0,0,0,0,0,0,0,0,0,0,Tense,,,,,,Since,"February,",Ben,has,crashed,his,car,four,times.,He,now,pays,a,lot,for,his,insurance.,?,?,?,?,?,?,?,?,?,?,?,?,?,?
Croatian,220,64,Perfect_Mismatch,x,1457,x,23,Does Ben pay the same amount for his insurance? ,yes,,,,,202,199,170,178,214,151,201,192,361,275,157,171,361,243,234,207,229,0,0,0,0,0,0,0,0,0,0,0,0,0,0,Tense,no,,,,,In,"February,",Ben,has,crashed,his,car,four,times.,He,now,pays,a,lot,for,his,insurance.,?,?,?,?,?,?,?,?,?,?,?,?,?,?
Croatian,221,78,Perfect_Match,x,3500,x,23,Does Ben pay the same amount for his insurance? ,yes,,,,,204,183,598,368,195,252,229,177,166,263,213,192,187,177,213,197,196,0,0,0,0,0,0,0,0,0,0,0,0,0,0,Tense,,,,,,Since,"February,",Ben,has,crashed,his,car,four,times.,He,now,pays,a,lot,for,his,insurance.,?,?,?,?,?,?,?,?,?,?,?,?,?,?
Croatian,224,66,Perfect_Mismatch,x,2176,x,23,Does Ben pay the same amount for his insurance? ,yes,,,,,323,344,435,513,479,462,411,432,627,551,553,605,422,431,395,573,406,0,0,0,0,0,0,0,0,0,0,0,0,0,0,Tense,no,,,,,In,"February,",Ben,has,crashed,his,car,four,times.,He,now,pays,a,lot,for,his,insurance.,?,?,?,?,?,?,?,?,?,?,?,?,?,?
Croatian,225,56,Perfect_Match,x,1907,x,23,Does Ben pay the same amount for his insurance? ,yes,,,,,309,281,580,358,283,290,253,293,278,577,330,276,281,274,264,328,690,0,0,0,0,0,0,0,0,0,0,0,0,0,0,Tense,,,,,,Since,"February,",Ben,has,crashed,his,car,four,times.,He,now,pays,a,lot,for,his,insurance.,?,?,?,?,?,?,?,?,?,?,?,?,?,?
Croatian,228,9,Perfect_Mismatch,x,3457,x,23,Does Ben pay the same amount for his insurance? ,yes,,,,,472,833,716,546,557,412,546,352,356,440,331,378,336,328,334,360,598,0,0,0,0,0,0,0,0,0,0,0,0,0,0,Tense,no,,,,,In,"February,",Ben,has,crashed,his,car,four,times.,He,now,pays,a,lot,for,his,insurance.,?,?,?,?,?,?,?,?,?,?,?,?,?,?
Croatian,229,38,Perfect_Match,x,1679,x,23,Does Ben pay the same amount for his insurance? ,yes,,,,,307,577,568,374,591,447,379,438,425,404,416,342,338,322,303,319,515,0,0,0,0,0,0,0,0,0,0,0,0,0,0,Tense,,,,,,Since,"February,",Ben,has,crashed,his,car,four,times.,He,now,pays,a,lot,for,his,insurance.,?,?,?,?,?,?,?,?,?,?,?,?,?,?
Croatian,232,18,Perfect_Mismatch,x,3306,x,23,Does Ben pay the same amount for his insurance? ,yes,,,,,577,422,391,344,392,299,334,407,352,416,389,272,319,324,349,364,657,0,0,0,0,0,0,0,0,0,0,0,0,0,0,Tense,no,,,,,In,"February,",Ben,has,crashed,his,car,four,times.,He,now,pays,a,lot,for,his,insurance.,?,?,?,?,?,?,?,?,?,?,?,?,?,?
Croatian,237,18,Perfect_Match,x,6159,x,23,Does Ben pay the same amount for his insurance? ,yes,,,,,324,390,380,286,237,234,223,234,229,245,226,251,258,233,261,264,266,0,0,0,0,0,0,0,0,0,0,0,0,0,0,Tense,,,,,,Since,"February,",Ben,has,crashed,his,car,four,times.,He,now,pays,a,lot,for,his,insurance.,?,?,?,?,?,?,?,?,?,?,?,?,?,?
Croatian,240,65,Perfect_Mismatch,x,3933,x,23,Does Ben pay the same amount for his insurance? ,yes,,,,,225,283,279,284,236,270,241,318,274,334,228,235,319,232,293,312,425,0,0,0,0,0,0,0,0,0,0,0,0,0,0,Tense,no,,,,,In,"February,",Ben,has,crashed,his,car,four,times.,He,now,pays,a,lot,for,his,insurance.,?,?,?,?,?,?,?,?,?,?,?,?,?,?
Croatian,201,58,Perfect_Match,m,2312,m,15,Did Bert want to enter into a gardening competition?,yes,,,,,166,413,381,311,390,315,308,726,314,456,399,368,406,533,254,249,349,389,0,0,0,0,0,0,0,0,0,0,0,0,0,Tense,,,,,,Since,"spring,",Bert,has,planted,many,roses,in,the,garden.,He,wanted,to,enter,into,a,gardening,competition.,?,?,?,?,?,?,?,?,?,?,?,?,?
Croatian,204,2,Perfect_Mismatch,m,1594,m,15,Did Bert want to enter into a gardening competition?,yes,,,,,377,522,431,644,443,492,394,356,342,408,582,389,361,300,351,333,364,322,0,0,0,0,0,0,0,0,0,0,0,0,0,Tense,no,,,,,Last,"spring,",Bert,has,planted,many,roses,in,the,garden.,He,wanted,to,enter,into,a,gardening,competition.,?,?,?,?,?,?,?,?,?,?,?,?,?
Croatian,205,8,Perfect_Match,m,4256,m,15,Did Bert want to enter into a gardening competition?,yes,,,,,717,730,606,664,683,732,631,779,597,563,798,595,589,616,630,716,619,910,0,0,0,0,0,0,0,0,0,0,0,0,0,Tense,,,,,,Since,"spring,",Bert,has,planted,many,roses,in,the,garden.,He,wanted,to,enter,into,a,gardening,competition.,?,?,?,?,?,?,?,?,?,?,?,?,?
Croatian,209,41,Perfect_Match,m,1728,m,15,Did Bert want to enter into a gardening competition?,yes,,,,,529,343,431,268,320,210,216,216,198,180,172,214,290,230,246,259,321,393,0,0,0,0,0,0,0,0,0,0,0,0,0,Tense,,,,,,Since,"spring,",Bert,has,planted,many,roses,in,the,garden.,He,wanted,to,enter,into,a,gardening,competition.,?,?,?,?,?,?,?,?,?,?,?,?,?
Croatian,220,74,Perfect_Mismatch,m,1777,m,15,Did Bert want to enter into a gardening competition?,yes,,,,,320,167,160,178,180,197,147,376,281,148,400,153,172,195,183,251,410,203,0,0,0,0,0,0,0,0,0,0,0,0,0,Tense,no,,,,,Last,"spring,",Bert,has,planted,many,roses,in,the,garden.,He,wanted,to,enter,into,a,gardening,competition.,?,?,?,?,?,?,?,?,?,?,?,?,?
Croatian,221,8,Perfect_Match,m,1663,m,15,Did Bert want to enter into a gardening competition?,yes,,,,,365,385,446,368,261,858,376,411,346,314,361,337,367,335,370,349,553,370,0,0,0,0,0,0,0,0,0,0,0,0,0,Tense,,,,,,Since,"spring,",Bert,has,planted,many,roses,in,the,garden.,He,wanted,to,enter,into,a,gardening,competition.,?,?,?,?,?,?,?,?,?,?,?,?,?
Croatian,224,84,Perfect_Mismatch,m,2385,m,15,Did Bert want to enter into a gardening competition?,yes,,,,,455,421,482,394,638,468,614,555,387,388,405,374,357,450,446,343,420,458,0,0,0,0,0,0,0,0,0,0,0,0,0,Tense,no,,,,,Last,"spring,",Bert,has,planted,many,roses,in,the,garden.,He,wanted,to,enter,into,a,gardening,competition.,?,?,?,?,?,?,?,?,?,?,?,?,?
Croatian,225,19,Perfect_Match,m,3434,m,15,Did Bert want to enter into a gardening competition?,yes,,,,,314,455,461,291,412,293,757,389,339,339,370,243,358,284,376,714,412,303,0,0,0,0,0,0,0,0,0,0,0,0,0,Tense,,,,,,Since,"spring,",Bert,has,planted,many,roses,in,the,garden.,He,wanted,to,enter,into,a,gardening,competition.,?,?,?,?,?,?,?,?,?,?,?,?,?
Croatian,228,71,Perfect_Mismatch,m,2246,m,15,Did Bert want to enter into a gardening competition?,yes,,,,,474,337,304,331,342,287,310,358,265,329,388,253,321,324,289,330,338,305,0,0,0,0,0,0,0,0,0,0,0,0,0,Tense,no,,,,,Last,"spring,",Bert,has,planted,many,roses,in,the,garden.,He,wanted,to,enter,into,a,gardening,competition.,?,?,?,?,?,?,?,?,?,?,?,?,?
Croatian,229,14,Perfect_Match,m,1552,m,15,Did Bert want to enter into a gardening competition?,yes,,,,,563,418,342,286,314,319,309,502,303,339,300,314,287,332,347,333,366,341,0,0,0,0,0,0,0,0,0,0,0,0,0,Tense,,,,,,Since,"spring,",Bert,has,planted,many,roses,in,the,garden.,He,wanted,to,enter,into,a,gardening,competition.,?,?,?,?,?,?,?,?,?,?,?,?,?
Croatian,232,38,Perfect_Mismatch,m,3145,m,15,Did Bert want to enter into a gardening competition?,yes,,,,,585,420,985,648,390,749,371,398,335,340,367,396,303,315,618,481,471,645,0,0,0,0,0,0,0,0,0,0,0,0,0,Tense,no,,,,,Last,"spring,",Bert,has,planted,many,roses,in,the,garden.,He,wanted,to,enter,into,a,gardening,competition.,?,?,?,?,?,?,?,?,?,?,?,?,?
Croatian,237,60,Perfect_Match,m,1607,m,15,Did Bert want to enter into a gardening competition?,yes,,,,,201,205,168,179,1381,255,234,196,219,264,319,300,589,397,250,298,344,308,0,0,0,0,0,0,0,0,0,0,0,0,0,Tense,,,,,,Since,"spring,",Bert,has,planted,many,roses,in,the,garden.,He,wanted,to,enter,into,a,gardening,competition.,?,?,?,?,?,?,?,?,?,?,?,?,?
Croatian,240,29,Perfect_Mismatch,m,2440,m,15,Did Bert want to enter into a gardening competition?,yes,,,,,442,351,807,508,1504,494,377,454,291,499,323,239,294,374,454,295,309,424,0,0,0,0,0,0,0,0,0,0,0,0,0,Tense,no,,,,,Last,"spring,",Bert,has,planted,many,roses,in,the,garden.,He,wanted,to,enter,into,a,gardening,competition.,?,?,?,?,?,?,?,?,?,?,?,?,?
Croatian,202,42,Perfect_Mismatch,x,2581,m,1,Has Joe liked Mary’s old school-friends?,yes,,,,,173,192,224,205,427,509,180,205,365,274,172,299,244,240,274,327,0,0,0,0,0,0,0,0,0,0,0,0,0,0,0,Tense,no,,,,,At,"first,",Joe,has,liked,Mary’s,old,school-friends.,He,does,not,think,they,are,boring.,boring.,?,?,?,?,?,?,?,?,?,?,?,?,?,?,?
Croatian,206,73,Perfect_Mismatch,m,2145,m,1,Has Joe liked Mary’s old school-friends?,yes,,,,,274,281,276,249,274,236,335,833,399,336,282,274,312,257,344,912,0,0,0,0,0,0,0,0,0,0,0,0,0,0,0,Tense,no,,,,,At,"first,",Joe,has,liked,Mary’s,old,school-friends.,He,does,not,think,they,are,boring.,boring.,?,?,?,?,?,?,?,?,?,?,?,?,?,?,?
Croatian,210,29,Perfect_Mismatch,m,3744,m,1,Has Joe liked Mary’s old school-friends?,yes,,,,,382,397,367,470,426,690,435,1244,358,368,412,364,339,373,351,961,0,0,0,0,0,0,0,0,0,0,0,0,0,0,0,Tense,no,,,,,At,"first,",Joe,has,liked,Mary’s,old,school-friends.,He,does,not,think,they,are,boring.,boring.,?,?,?,?,?,?,?,?,?,?,?,?,?,?,?
Croatian,214,41,Perfect_Mismatch,m,2200,m,1,Has Joe liked Mary’s old school-friends?,yes,,,,,603,326,420,404,419,667,521,483,475,411,362,333,361,283,284,593,0,0,0,0,0,0,0,0,0,0,0,0,0,0,0,Tense,no,,,,,At,"first,",Joe,has,liked,Mary’s,old,school-friends.,He,does,not,think,they,are,boring.,boring.,?,?,?,?,?,?,?,?,?,?,?,?,?,?,?
Croatian,222,71,Perfect_Mismatch,m,1699,m,1,Has Joe liked Mary’s old school-friends?,yes,,,,,199,217,181,206,369,203,150,143,101,404,199,230,219,195,225,259,0,0,0,0,0,0,0,0,0,0,0,0,0,0,0,Tense,no,,,,,At,"first,",Joe,has,liked,Mary’s,old,school-friends.,He,does,not,think,they,are,boring.,boring.,?,?,?,?,?,?,?,?,?,?,?,?,?,?,?
Croatian,226,58,Perfect_Mismatch,m,3592,m,1,Has Joe liked Mary’s old school-friends?,yes,,,,,134,143,168,155,162,162,351,175,200,307,162,191,196,163,176,194,0,0,0,0,0,0,0,0,0,0,0,0,0,0,0,Tense,no,,,,,At,"first,",Joe,has,liked,Mary’s,old,school-friends.,He,does,not,think,they,are,boring.,boring.,?,?,?,?,?,?,?,?,?,?,?,?,?,?,?
Croatian,230,29,Perfect_Mismatch,m,3038,m,1,Has Joe liked Mary’s old school-friends?,yes,,,,,434,1496,599,358,1204,1583,498,2305,1827,387,416,321,358,367,406,2211,0,0,0,0,0,0,0,0,0,0,0,0,0,0,0,Tense,no,,,,,At,"first,",Joe,has,liked,Mary’s,old,school-friends.,He,does,not,think,they,are,boring.,boring.,?,?,?,?,?,?,?,?,?,?,?,?,?,?,?
Croatian,234,6,Perfect_Mismatch,x,2240,m,1,Has Joe liked Mary’s old school-friends?,yes,,,,,531,162,118,353,135,181,467,208,492,302,321,271,191,296,215,807,0,0,0,0,0,0,0,0,0,0,0,0,0,0,0,Tense,no,,,,,At,"first,",Joe,has,liked,Mary’s,old,school-friends.,He,does,not,think,they,are,boring.,boring.,?,?,?,?,?,?,?,?,?,?,?,?,?,?,?
Croatian,203,21,Perfect_Mismatch,x,11720,m,2,Has the cat eaten only fish?,yes,,,,,628,474,405,301,265,445,323,411,398,336,266,297,0,0,0,0,0,0,0,0,0,0,0,0,0,0,0,0,0,0,0,Tense,no,,,,,"Initially,",the,cat,has,eaten,only,fish.,She,now,also,eats,meat.,?,?,?,?,?,?,?,?,?,?,?,?,?,?,?,?,?,?,?
Croatian,207,37,Perfect_Mismatch,m,3310,m,2,Has the cat eaten only fish?,yes,,,,,383,289,291,233,212,290,236,251,282,258,251,230,0,0,0,0,0,0,0,0,0,0,0,0,0,0,0,0,0,0,0,Tense,no,,,,,"Initially,",the,cat,has,eaten,only,fish.,She,now,also,eats,meat.,?,?,?,?,?,?,?,?,?,?,?,?,?,?,?,?,?,?,?
Croatian,215,26,Perfect_Mismatch,m,2514,m,2,Has the cat eaten only fish?,yes,,,,,271,366,323,336,342,310,338,433,317,281,274,286,0,0,0,0,0,0,0,0,0,0,0,0,0,0,0,0,0,0,0,Tense,no,,,,,"Initially,",the,cat,has,eaten,only,fish.,She,now,also,eats,meat.,?,?,?,?,?,?,?,?,?,?,?,?,?,?,?,?,?,?,?
Croatian,227,36,Perfect_Mismatch,m,4195,m,2,Has the cat eaten only fish?,yes,,,,,299,329,295,290,237,530,471,369,262,261,234,236,0,0,0,0,0,0,0,0,0,0,0,0,0,0,0,0,0,0,0,Tense,no,,,,,"Initially,",the,cat,has,eaten,only,fish.,She,now,also,eats,meat.,?,?,?,?,?,?,?,?,?,?,?,?,?,?,?,?,?,?,?
Croatian,231,48,Perfect_Mismatch,x,3524,m,2,Has the cat eaten only fish?,yes,,,,,282,492,598,470,364,293,260,328,280,243,490,248,0,0,0,0,0,0,0,0,0,0,0,0,0,0,0,0,0,0,0,Tense,no,,,,,"Initially,",the,cat,has,eaten,only,fish.,She,now,also,eats,meat.,?,?,?,?,?,?,?,?,?,?,?,?,?,?,?,?,?,?,?
Croatian,235,69,Perfect_Mismatch,x,11180,m,2,Has the cat eaten only fish?,yes,,,,,437,331,240,376,258,269,287,495,589,315,428,418,0,0,0,0,0,0,0,0,0,0,0,0,0,0,0,0,0,0,0,Tense,no,,,,,"Initially,",the,cat,has,eaten,only,fish.,She,now,also,eats,meat.,?,?,?,?,?,?,?,?,?,?,?,?,?,?,?,?,?,?,?
Croatian,239,63,Perfect_Mismatch,x,6648,m,2,Has the cat eaten only fish?,yes,,,,,500,321,488,221,286,530,419,1131,361,290,331,376,0,0,0,0,0,0,0,0,0,0,0,0,0,0,0,0,0,0,0,Tense,no,,,,,"Initially,",the,cat,has,eaten,only,fish.,She,now,also,eats,meat.,?,?,?,?,?,?,?,?,?,?,?,?,?,?,?,?,?,?,?
Croatian,243,47,Perfect_Mismatch,x,7321,m,2,Has the cat eaten only fish?,yes,,,,,320,374,370,316,312,265,326,397,275,281,263,349,0,0,0,0,0,0,0,0,0,0,0,0,0,0,0,0,0,0,0,Tense,no,,,,,"Initially,",the,cat,has,eaten,only,fish.,She,now,also,eats,meat.,?,?,?,?,?,?,?,?,?,?,?,?,?,?,?,?,?,?,?
Croatian,202,65,Perfect_Mismatch,m,1328,x,5,Has James gone running every day?,yes,,,,,187,212,283,222,285,192,253,257,158,367,143,158,176,201,193,0,0,0,0,0,0,0,0,0,0,0,0,0,0,0,0,Tense,no,,,,,Last,"week,",James,has,gone,swimming,every,day.,Now,he,is,getting,bored,of,it.,?,?,?,?,?,?,?,?,?,?,?,?,?,?,?,?
Croatian,206,62,Perfect_Mismatch,x,2551,x,5,Has James gone running every day?,yes,,,,,251,226,246,214,190,280,317,443,549,470,399,406,539,442,785,0,0,0,0,0,0,0,0,0,0,0,0,0,0,0,0,Tense,no,,,,,Last,"week,",James,has,gone,swimming,every,day.,Now,he,is,getting,bored,of,it.,?,?,?,?,?,?,?,?,?,?,?,?,?,?,?,?
Croatian,210,62,Perfect_Mismatch,x,3176,x,5,Has James gone running every day?,yes,,,,,375,371,267,381,327,380,388,398,389,362,411,440,396,377,390,0,0,0,0,0,0,0,0,0,0,0,0,0,0,0,0,Tense,no,,,,,Last,"week,",James,has,gone,swimming,every,day.,Now,he,is,getting,bored,of,it.,?,?,?,?,?,?,?,?,?,?,?,?,?,?,?,?
Croatian,214,23,Perfect_Mismatch,x,2380,x,5,Has James gone running every day?,yes,,,,,385,623,505,386,352,353,367,390,400,354,320,346,377,359,303,0,0,0,0,0,0,0,0,0,0,0,0,0,0,0,0,Tense,no,,,,,Last,"week,",James,has,gone,swimming,every,day.,Now,he,is,getting,bored,of,it.,?,?,?,?,?,?,?,?,?,?,?,?,?,?,?,?
Croatian,222,21,Perfect_Mismatch,x,1391,x,5,Has James gone running every day?,yes,,,,,192,326,307,439,203,180,171,206,368,383,208,213,271,300,254,0,0,0,0,0,0,0,0,0,0,0,0,0,0,0,0,Tense,no,,,,,Last,"week,",James,has,gone,swimming,every,day.,Now,he,is,getting,bored,of,it.,?,?,?,?,?,?,?,?,?,?,?,?,?,?,?,?
Croatian,226,30,Perfect_Mismatch,x,2132,x,5,Has James gone running every day?,yes,,,,,155,157,179,173,154,154,179,139,167,204,170,176,191,185,180,0,0,0,0,0,0,0,0,0,0,0,0,0,0,0,0,Tense,no,,,,,Last,"week,",James,has,gone,swimming,every,day.,Now,he,is,getting,bored,of,it.,?,?,?,?,?,?,?,?,?,?,?,?,?,?,?,?
Croatian,230,26,Perfect_Mismatch,x,1892,x,5,Has James gone running every day?,yes,,,,,1022,2033,767,916,2081,2022,738,3165,834,544,471,458,557,712,1179,0,0,0,0,0,0,0,0,0,0,0,0,0,0,0,0,Tense,no,,,,,Last,"week,",James,has,gone,swimming,every,day.,Now,he,is,getting,bored,of,it.,?,?,?,?,?,?,?,?,?,?,?,?,?,?,?,?
Croatian,234,44,Perfect_Mismatch,x,1357,x,5,Has James gone running every day?,yes,,,,,343,133,154,153,144,186,311,173,165,220,197,168,163,146,168,0,0,0,0,0,0,0,0,0,0,0,0,0,0,0,0,Tense,no,,,,,Last,"week,",James,has,gone,swimming,every,day.,Now,he,is,getting,bored,of,it.,?,?,?,?,?,?,?,?,?,?,?,?,?,?,?,?
Croatian,204,50,Perfect_Mismatch,m,1620,m,7,Has Mark seen the film three times?,yes,,,,,417,623,294,343,320,295,337,282,337,277,474,228,243,259,0,0,0,0,0,0,0,0,0,0,0,0,0,0,0,0,0,Tense,no,,,,,Last,"Friday,",Mark,has,seen,the,same,film,three,times.,He,really,loved,it.,?,?,?,?,?,?,?,?,?,?,?,?,?,?,?,?,?
Croatian,220,56,Perfect_Mismatch,m,1683,m,7,Has Mark seen the film three times?,yes,,,,,403,176,207,140,186,183,180,167,158,197,382,162,175,195,0,0,0,0,0,0,0,0,0,0,0,0,0,0,0,0,0,Tense,no,,,,,Last,"Friday,",Mark,has,seen,the,same,film,three,times.,He,really,loved,it.,?,?,?,?,?,?,?,?,?,?,?,?,?,?,?,?,?
Croatian,224,60,Perfect_Mismatch,m,1955,m,7,Has Mark seen the film three times?,yes,,,,,413,430,433,454,381,452,457,479,452,417,519,540,384,478,0,0,0,0,0,0,0,0,0,0,0,0,0,0,0,0,0,Tense,no,,,,,Last,"Friday,",Mark,has,seen,the,same,film,three,times.,He,really,loved,it.,?,?,?,?,?,?,?,?,?,?,?,?,?,?,?,?,?
Croatian,228,66,Perfect_Mismatch,m,2257,m,7,Has Mark seen the film three times?,yes,,,,,384,394,435,346,328,278,360,301,342,266,731,437,263,358,0,0,0,0,0,0,0,0,0,0,0,0,0,0,0,0,0,Tense,no,,,,,Last,"Friday,",Mark,has,seen,the,same,film,three,times.,He,really,loved,it.,?,?,?,?,?,?,?,?,?,?,?,?,?,?,?,?,?
Croatian,232,37,Perfect_Mismatch,m,2426,m,7,Has Mark seen the film three times?,yes,,,,,575,1269,419,338,429,394,411,434,395,337,513,425,394,450,0,0,0,0,0,0,0,0,0,0,0,0,0,0,0,0,0,Tense,no,,,,,Last,"Friday,",Mark,has,seen,the,same,film,three,times.,He,really,loved,it.,?,?,?,?,?,?,?,?,?,?,?,?,?,?,?,?,?
Croatian,240,10,Perfect_Mismatch,m,4562,m,7,Has Mark seen the film three times?,yes,,,,,346,330,377,424,373,352,389,372,313,382,382,331,378,360,0,0,0,0,0,0,0,0,0,0,0,0,0,0,0,0,0,Tense,no,,,,,Last,"Friday,",Mark,has,seen,the,same,film,three,times.,He,really,loved,it.,?,?,?,?,?,?,?,?,?,?,?,?,?,?,?,?,?
Croatian,201,1,Perfect_Mismatch,m,2010,m,24,Does Michael want to become a professional?,yes,,,,,570,325,461,364,456,442,398,402,636,410,429,337,341,407,583,0,0,0,0,0,0,0,0,0,0,0,0,0,0,0,0,Tense,no,,,,,Last,"year,",Michael,has,learnt,to,play,poker.,He,now,wants,to,become,a,professional.,?,?,?,?,?,?,?,?,?,?,?,?,?,?,?,?
Croatian,205,49,Perfect_Mismatch,m,3852,m,24,Does Michael want to become a professional?,yes,,,,,438,487,424,476,447,432,414,484,468,411,399,385,372,450,658,0,0,0,0,0,0,0,0,0,0,0,0,0,0,0,0,Tense,no,,,,,Last,"year,",Michael,has,learnt,to,play,poker.,He,now,wants,to,become,a,professional.,?,?,?,?,?,?,?,?,?,?,?,?,?,?,?,?
Croatian,209,55,Perfect_Mismatch,m,2299,m,24,Does Michael want to become a professional?,yes,,,,,296,229,402,202,388,344,256,372,304,483,289,248,342,266,269,0,0,0,0,0,0,0,0,0,0,0,0,0,0,0,0,Tense,no,,,,,Last,"year,",Michael,has,learnt,to,play,poker.,He,now,wants,to,become,a,professional.,?,?,?,?,?,?,?,?,?,?,?,?,?,?,?,?
Croatian,221,66,Perfect_Mismatch,m,2771,m,24,Does Michael want to become a professional?,yes,,,,,480,188,310,252,215,224,174,274,271,223,281,223,203,206,228,0,0,0,0,0,0,0,0,0,0,0,0,0,0,0,0,Tense,no,,,,,Last,"year,",Michael,has,learnt,to,play,poker.,He,now,wants,to,become,a,professional.,?,?,?,?,?,?,?,?,?,?,?,?,?,?,?,?
Croatian,225,79,Perfect_Mismatch,m,2280,m,24,Does Michael want to become a professional?,yes,,,,,816,304,299,401,517,1916,263,2624,239,348,248,331,223,235,781,0,0,0,0,0,0,0,0,0,0,0,0,0,0,0,0,Tense,no,,,,,Last,"year,",Michael,has,learnt,to,play,poker.,He,now,wants,to,become,a,professional.,?,?,?,?,?,?,?,?,?,?,?,?,?,?,?,?
Croatian,229,82,Perfect_Mismatch,m,1607,m,24,Does Michael want to become a professional?,yes,,,,,355,333,277,379,376,335,268,379,321,285,298,324,325,343,369,0,0,0,0,0,0,0,0,0,0,0,0,0,0,0,0,Tense,no,,,,,Last,"year,",Michael,has,learnt,to,play,poker.,He,now,wants,to,become,a,professional.,?,?,?,?,?,?,?,?,?,?,?,?,?,?,?,?
Croatian,237,70,Perfect_Mismatch,m,1288,m,24,Does Michael want to become a professional?,yes,,,,,183,202,192,180,181,254,217,446,280,514,281,551,251,291,254,0,0,0,0,0,0,0,0,0,0,0,0,0,0,0,0,Tense,no,,,,,Last,"year,",Michael,has,learnt,to,play,poker.,He,now,wants,to,become,a,professional.,?,?,?,?,?,?,?,?,?,?,?,?,?,?,?,?
Croatian,203,42,Perfect_Mismatch,x,1885,x,22,Does Christine still like Gary?,yes,,,,,305,255,299,383,271,308,285,296,364,339,301,297,300,0,0,0,0,0,0,0,0,0,0,0,0,0,0,0,0,0,0,Tense,no,,,,,At,"first,",Christine,has,wanted,to,marry,Gary.,Now,she,finds,him,unpleasant.,?,?,?,?,?,?,?,?,?,?,?,?,?,?,?,?,?,?
Croatian,207,6,Perfect_Mismatch,x,1777,x,22,Does Christine still like Gary?,yes,,,,,261,218,243,258,247,289,299,279,377,231,266,293,235,0,0,0,0,0,0,0,0,0,0,0,0,0,0,0,0,0,0,Tense,no,,,,,At,"first,",Christine,has,wanted,to,marry,Gary.,Now,she,finds,him,unpleasant.,?,?,?,?,?,?,?,?,?,?,?,?,?,?,?,?,?,?
Croatian,215,50,Perfect_Mismatch,x,1372,x,22,Does Christine still like Gary?,yes,,,,,286,340,450,290,302,293,283,288,324,289,246,539,310,0,0,0,0,0,0,0,0,0,0,0,0,0,0,0,0,0,0,Tense,no,,,,,At,"first,",Christine,has,wanted,to,marry,Gary.,Now,she,finds,him,unpleasant.,?,?,?,?,?,?,?,?,?,?,?,?,?,?,?,?,?,?
Croatian,227,2,Perfect_Mismatch,x,3218,x,22,Does Christine still like Gary?,yes,,,,,1542,819,798,1010,907,712,832,697,757,819,864,734,1046,0,0,0,0,0,0,0,0,0,0,0,0,0,0,0,0,0,0,Tense,no,,,,,At,"first,",Christine,has,wanted,to,marry,Gary.,Now,she,finds,him,unpleasant.,?,?,?,?,?,?,?,?,?,?,?,?,?,?,?,?,?,?
Croatian,231,34,Perfect_Mismatch,x,1750,x,22,Does Christine still like Gary?,yes,,,,,364,295,271,292,678,322,276,284,324,299,273,248,625,0,0,0,0,0,0,0,0,0,0,0,0,0,0,0,0,0,0,Tense,no,,,,,At,"first,",Christine,has,wanted,to,marry,Gary.,Now,she,finds,him,unpleasant.,?,?,?,?,?,?,?,?,?,?,?,?,?,?,?,?,?,?
Croatian,235,41,Perfect_Mismatch,x,1853,x,22,Does Christine still like Gary?,yes,,,,,353,275,277,432,304,269,354,327,588,410,439,398,542,0,0,0,0,0,0,0,0,0,0,0,0,0,0,0,0,0,0,Tense,no,,,,,At,"first,",Christine,has,wanted,to,marry,Gary.,Now,she,finds,him,unpleasant.,?,?,?,?,?,?,?,?,?,?,?,?,?,?,?,?,?,?
Croatian,239,22,Perfect_Mismatch,x,1972,x,22,Does Christine still like Gary?,yes,,,,,685,326,442,382,291,243,300,284,934,321,340,334,514,0,0,0,0,0,0,0,0,0,0,0,0,0,0,0,0,0,0,Tense,no,,,,,At,"first,",Christine,has,wanted,to,marry,Gary.,Now,she,finds,him,unpleasant.,?,?,?,?,?,?,?,?,?,?,?,?,?,?,?,?,?,?
Croatian,243,73,Perfect_Mismatch,x,2237,x,22,Does Christine still like Gary?,yes,,,,,274,344,305,319,281,333,325,286,310,312,282,320,294,0,0,0,0,0,0,0,0,0,0,0,0,0,0,0,0,0,0,Tense,no,,,,,At,"first,",Christine,has,wanted,to,marry,Gary.,Now,she,finds,him,unpleasant.,?,?,?,?,?,?,?,?,?,?,?,?,?,?,?,?,?,?
Croatian,201,79,Perfect_Mismatch,m,2045,m,16,Was Barbara’s credit card bill enormous?,yes,,,,,730,474,363,392,350,549,306,398,376,311,317,316,304,257,0,0,0,0,0,0,0,0,0,0,0,0,0,0,0,0,0,Tense,no,,,,,At,"Christmas,",Barbara,has,spent,too,much,money.,Her,credit,card,bill,was,enormous.,?,?,?,?,?,?,?,?,?,?,?,?,?,?,?,?,?
Croatian,202,12,Perfect_Match,m,1637,m,16,Was Barbara’s credit card bill enormous?,yes,,,,,143,254,172,204,191,280,272,294,179,307,278,232,375,316,0,0,0,0,0,0,0,0,0,0,0,0,0,0,0,0,0,Tense,,,,,,Since,"Christmas,",Barbara,has,spent,too,much,money.,Her,credit,card,bill,was,enormous.,?,?,?,?,?,?,?,?,?,?,?,?,?,?,?,?,?
Croatian,205,74,Perfect_Mismatch,m,1872,m,16,Was Barbara’s credit card bill enormous?,yes,,,,,262,315,531,397,396,292,248,301,343,300,292,314,294,307,0,0,0,0,0,0,0,0,0,0,0,0,0,0,0,0,0,Tense,no,,,,,At,"Christmas,",Barbara,has,spent,too,much,money.,Her,credit,card,bill,was,enormous.,?,?,?,?,?,?,?,?,?,?,?,?,?,?,?,?,?
Croatian,206,47,Perfect_Match,m,1609,m,16,Was Barbara’s credit card bill enormous?,yes,,,,,324,320,311,308,341,287,338,317,343,320,344,330,326,336,0,0,0,0,0,0,0,0,0,0,0,0,0,0,0,0,0,Tense,,,,,,Since,"Christmas,",Barbara,has,spent,too,much,money.,Her,credit,card,bill,was,enormous.,?,?,?,?,?,?,?,?,?,?,?,?,?,?,?,?,?
Croatian,209,82,Perfect_Mismatch,m,2267,m,16,Was Barbara’s credit card bill enormous?,yes,,,,,277,194,389,203,412,245,231,296,301,161,317,247,214,254,0,0,0,0,0,0,0,0,0,0,0,0,0,0,0,0,0,Tense,no,,,,,At,"Christmas,",Barbara,has,spent,too,much,money.,Her,credit,card,bill,was,enormous.,?,?,?,?,?,?,?,?,?,?,?,?,?,?,?,?,?
Croatian,210,7,Perfect_Match,m,2737,m,16,Was Barbara’s credit card bill enormous?,yes,,,,,457,860,630,506,756,497,427,551,526,619,523,630,651,1020,0,0,0,0,0,0,0,0,0,0,0,0,0,0,0,0,0,Tense,,,,,,Since,"Christmas,",Barbara,has,spent,too,much,money.,Her,credit,card,bill,was,enormous.,?,?,?,?,?,?,?,?,?,?,?,?,?,?,?,?,?
Croatian,214,36,Perfect_Match,m,1953,m,16,Was Barbara’s credit card bill enormous?,yes,,,,,396,339,333,351,622,311,300,302,375,280,278,292,285,320,0,0,0,0,0,0,0,0,0,0,0,0,0,0,0,0,0,Tense,,,,,,Since,"Christmas,",Barbara,has,spent,too,much,money.,Her,credit,card,bill,was,enormous.,?,?,?,?,?,?,?,?,?,?,?,?,?,?,?,?,?
Croatian,221,70,Perfect_Mismatch,m,4322,m,16,Was Barbara’s credit card bill enormous?,yes,,,,,516,578,336,271,219,234,320,400,521,290,290,211,243,184,0,0,0,0,0,0,0,0,0,0,0,0,0,0,0,0,0,Tense,no,,,,,At,"Christmas,",Barbara,has,spent,too,much,money.,Her,credit,card,bill,was,enormous.,?,?,?,?,?,?,?,?,?,?,?,?,?,?,?,?,?
Croatian,222,42,Perfect_Match,m,1689,m,16,Was Barbara’s credit card bill enormous?,yes,,,,,177,444,241,165,225,232,216,394,235,231,223,227,225,256,0,0,0,0,0,0,0,0,0,0,0,0,0,0,0,0,0,Tense,,,,,,Since,"Christmas,",Barbara,has,spent,too,much,money.,Her,credit,card,bill,was,enormous.,?,?,?,?,?,?,?,?,?,?,?,?,?,?,?,?,?
Croatian,225,33,Perfect_Mismatch,m,2059,m,16,Was Barbara’s credit card bill enormous?,yes,,,,,234,254,291,224,362,252,279,1563,627,240,277,282,313,265,0,0,0,0,0,0,0,0,0,0,0,0,0,0,0,0,0,Tense,no,,,,,At,"Christmas,",Barbara,has,spent,too,much,money.,Her,credit,card,bill,was,enormous.,?,?,?,?,?,?,?,?,?,?,?,?,?,?,?,?,?
Croatian,226,10,Perfect_Match,m,1246,m,16,Was Barbara’s credit card bill enormous?,yes,,,,,399,157,213,233,219,212,192,213,207,231,210,232,188,556,0,0,0,0,0,0,0,0,0,0,0,0,0,0,0,0,0,Tense,,,,,,Since,"Christmas,",Barbara,has,spent,too,much,money.,Her,credit,card,bill,was,enormous.,?,?,?,?,?,?,?,?,?,?,?,?,?,?,?,?,?
Croatian,229,43,Perfect_Mismatch,m,2576,m,16,Was Barbara’s credit card bill enormous?,yes,,,,,373,329,360,339,313,321,332,365,361,360,336,322,316,292,0,0,0,0,0,0,0,0,0,0,0,0,0,0,0,0,0,Tense,no,,,,,At,"Christmas,",Barbara,has,spent,too,much,money.,Her,credit,card,bill,was,enormous.,?,?,?,?,?,?,?,?,?,?,?,?,?,?,?,?,?
Croatian,230,57,Perfect_Match,m,2360,m,16,Was Barbara’s credit card bill enormous?,yes,,,,,488,1871,1249,392,358,448,368,1170,916,593,298,308,385,476,0,0,0,0,0,0,0,0,0,0,0,0,0,0,0,0,0,Tense,,,,,,Since,"Christmas,",Barbara,has,spent,too,much,money.,Her,credit,card,bill,was,enormous.,?,?,?,?,?,?,?,?,?,?,?,?,?,?,?,?,?
Croatian,234,51,Perfect_Match,m,1107,m,16,Was Barbara’s credit card bill enormous?,yes,,,,,301,149,109,132,374,130,123,325,107,253,222,184,171,199,0,0,0,0,0,0,0,0,0,0,0,0,0,0,0,0,0,Tense,,,,,,Since,"Christmas,",Barbara,has,spent,too,much,money.,Her,credit,card,bill,was,enormous.,?,?,?,?,?,?,?,?,?,?,?,?,?,?,?,?,?
Croatian,237,34,Perfect_Mismatch,m,2769,m,16,Was Barbara’s credit card bill enormous?,yes,,,,,323,306,235,230,202,395,223,219,183,213,214,184,207,187,0,0,0,0,0,0,0,0,0,0,0,0,0,0,0,0,0,Tense,no,,,,,At,"Christmas,",Barbara,has,spent,too,much,money.,Her,credit,card,bill,was,enormous.,?,?,?,?,?,?,?,?,?,?,?,?,?,?,?,?,?
Croatian,202,5,Perfect_Mismatch,m,2590,m,21,Did Sandra think about quitting her job?,yes,,,,,446,253,324,398,302,361,357,349,352,277,294,337,374,0,0,0,0,0,0,0,0,0,0,0,0,0,0,0,0,0,0,Tense,no,,,,,Last,"month,",Sandra,has,felt,unhappy,at,work.,She,even,thought,about,leaving.,?,?,?,?,?,?,?,?,?,?,?,?,?,?,?,?,?,?
Croatian,206,54,Perfect_Mismatch,m,1541,m,21,Did Sandra think about quitting her job?,yes,,,,,358,373,327,286,342,336,406,373,342,289,356,453,396,0,0,0,0,0,0,0,0,0,0,0,0,0,0,0,0,0,0,Tense,no,,,,,Last,"month,",Sandra,has,felt,unhappy,at,work.,She,even,thought,about,leaving.,?,?,?,?,?,?,?,?,?,?,?,?,?,?,?,?,?,?
Croatian,210,19,Perfect_Mismatch,m,2085,m,21,Did Sandra think about quitting her job?,yes,,,,,488,425,744,794,707,688,502,865,651,731,486,464,550,0,0,0,0,0,0,0,0,0,0,0,0,0,0,0,0,0,0,Tense,no,,,,,Last,"month,",Sandra,has,felt,unhappy,at,work.,She,even,thought,about,leaving.,?,?,?,?,?,?,?,?,?,?,?,?,?,?,?,?,?,?
Croatian,214,42,Perfect_Mismatch,m,1688,m,21,Did Sandra think about quitting her job?,yes,,,,,342,723,453,337,316,327,321,266,353,359,282,312,299,0,0,0,0,0,0,0,0,0,0,0,0,0,0,0,0,0,0,Tense,no,,,,,Last,"month,",Sandra,has,felt,unhappy,at,work.,She,even,thought,about,leaving.,?,?,?,?,?,?,?,?,?,?,?,?,?,?,?,?,?,?
Croatian,222,26,Perfect_Mismatch,m,1042,m,21,Did Sandra think about quitting her job?,yes,,,,,367,314,240,226,204,297,277,221,208,234,196,206,208,0,0,0,0,0,0,0,0,0,0,0,0,0,0,0,0,0,0,Tense,no,,,,,Last,"month,",Sandra,has,felt,unhappy,at,work.,She,even,thought,about,leaving.,?,?,?,?,?,?,?,?,?,?,?,?,?,?,?,?,?,?
Croatian,226,28,Perfect_Mismatch,m,1358,m,21,Did Sandra think about quitting her job?,yes,,,,,125,166,157,162,168,155,190,195,168,186,453,210,170,0,0,0,0,0,0,0,0,0,0,0,0,0,0,0,0,0,0,Tense,no,,,,,Last,"month,",Sandra,has,felt,unhappy,at,work.,She,even,thought,about,leaving.,?,?,?,?,?,?,?,?,?,?,?,?,?,?,?,?,?,?
Croatian,230,11,Perfect_Mismatch,m,5369,m,21,Did Sandra think about quitting her job?,yes,,,,,1549,2058,912,986,731,473,1083,371,2292,426,988,473,1363,0,0,0,0,0,0,0,0,0,0,0,0,0,0,0,0,0,0,Tense,no,,,,,Last,"month,",Sandra,has,felt,unhappy,at,work.,She,even,thought,about,leaving.,?,?,?,?,?,?,?,?,?,?,?,?,?,?,?,?,?,?
Croatian,234,39,Perfect_Mismatch,m,1145,m,21,Did Sandra think about quitting her job?,yes,,,,,357,222,285,213,220,124,191,204,173,188,192,204,172,0,0,0,0,0,0,0,0,0,0,0,0,0,0,0,0,0,0,Tense,no,,,,,Last,"month,",Sandra,has,felt,unhappy,at,work.,She,even,thought,about,leaving.,?,?,?,?,?,?,?,?,?,?,?,?,?,?,?,?,?,?
Croatian,203,73,Perfect_Match,x,6956,x,9,Has Matt been a successful musician?,yes,,,325,341,308,263,299,215,239,217,366,230,364,260,248,408,347,227,357,0,0,0,0,0,0,0,0,0,0,0,0,0,0,0,0,Tense,,,,Since,he,was,"twenty,",Matt,has,been,a,successful,businessman.,He,now,feels,unsatisfied,with,his,life.,?,?,?,?,?,?,?,?,?,?,?,?,?,?,?,?
Croatian,207,54,Perfect_Match,x,2289,x,9,Has Matt been a successful musician?,yes,,,335,437,321,377,580,344,314,398,390,364,443,428,409,322,359,307,392,0,0,0,0,0,0,0,0,0,0,0,0,0,0,0,0,Tense,,,,Since,he,was,"twenty,",Matt,has,been,a,successful,businessman.,He,now,feels,unsatisfied,with,his,life.,?,?,?,?,?,?,?,?,?,?,?,?,?,?,?,?
Croatian,215,61,Perfect_Match,x,2712,x,9,Has Matt been a successful musician?,yes,,,310,305,480,426,335,312,348,346,310,532,381,310,389,563,386,366,711,0,0,0,0,0,0,0,0,0,0,0,0,0,0,0,0,Tense,,,,Since,he,was,"twenty,",Matt,has,been,a,successful,businessman.,He,now,feels,unsatisfied,with,his,life.,?,?,?,?,?,?,?,?,?,?,?,?,?,?,?,?
Croatian,227,71,Perfect_Match,x,2218,x,9,Has Matt been a successful musician?,yes,,,297,285,273,432,260,510,201,194,373,212,288,234,224,250,339,239,250,0,0,0,0,0,0,0,0,0,0,0,0,0,0,0,0,Tense,,,,Since,he,was,"twenty,",Matt,has,been,a,successful,businessman.,He,now,feels,unsatisfied,with,his,life.,?,?,?,?,?,?,?,?,?,?,?,?,?,?,?,?
Croatian,231,37,Perfect_Match,x,3118,x,9,Has Matt been a successful musician?,yes,,,235,263,281,247,299,260,297,245,265,258,386,218,245,263,283,268,278,0,0,0,0,0,0,0,0,0,0,0,0,0,0,0,0,Tense,,,,Since,he,was,"twenty,",Matt,has,been,a,successful,businessman.,He,now,feels,unsatisfied,with,his,life.,?,?,?,?,?,?,?,?,?,?,?,?,?,?,?,?
Croatian,235,4,Perfect_Match,x,2897,x,9,Has Matt been a successful musician?,yes,,,1074,275,318,713,656,348,338,366,476,576,381,328,405,770,432,325,555,0,0,0,0,0,0,0,0,0,0,0,0,0,0,0,0,Tense,,,,Since,he,was,"twenty,",Matt,has,been,a,successful,businessman.,He,now,feels,unsatisfied,with,his,life.,?,?,?,?,?,?,?,?,?,?,?,?,?,?,?,?
Croatian,239,59,Perfect_Match,x,6545,x,9,Has Matt been a successful musician?,yes,,,344,302,287,330,328,360,317,266,387,698,534,365,384,617,572,426,310,0,0,0,0,0,0,0,0,0,0,0,0,0,0,0,0,Tense,,,,Since,he,was,"twenty,",Matt,has,been,a,successful,businessman.,He,now,feels,unsatisfied,with,his,life.,?,?,?,?,?,?,?,?,?,?,?,?,?,?,?,?
Croatian,243,61,Perfect_Match,x,2429,x,9,Has Matt been a successful musician?,yes,,,351,392,336,302,322,323,320,339,303,337,346,322,345,355,338,309,389,0,0,0,0,0,0,0,0,0,0,0,0,0,0,0,0,Tense,,,,Since,he,was,"twenty,",Matt,has,been,a,successful,businessman.,He,now,feels,unsatisfied,with,his,life.,?,?,?,?,?,?,?,?,?,?,?,?,?,?,?,?
Croatian,201,44,Perfect_Mismatch,m,2537,m,20,Did Jerry want to be a millionaire?,yes,,,342,334,344,361,385,451,439,403,618,401,432,983,373,561,295,355,482,0,0,0,0,0,0,0,0,0,0,0,0,0,0,0,0,Tense,no,,,When,he,finished,"university,",Jerry,has,thought,about,starting,a,business.,He,wanted,to,be,a,millionaire.,?,?,?,?,?,?,?,?,?,?,?,?,?,?,?,?
Croatian,202,64,Perfect_Match,m,1293,m,20,Did Jerry want to be a millionaire?,yes,,,387,181,198,591,170,474,219,220,441,180,221,366,195,279,207,266,223,0,0,0,0,0,0,0,0,0,0,0,0,0,0,0,0,Tense,,,,Since,he,finished,"university,",Jerry,has,thought,about,starting,a,business.,He,wanted,to,be,a,millionaire.,?,?,?,?,?,?,?,?,?,?,?,?,?,?,?,?
Croatian,205,53,Perfect_Mismatch,m,3290,m,20,Did Jerry want to be a millionaire?,yes,,,505,429,478,485,467,537,518,1219,304,601,742,477,403,425,393,405,988,0,0,0,0,0,0,0,0,0,0,0,0,0,0,0,0,Tense,no,,,When,he,finished,"university,",Jerry,has,thought,about,starting,a,business.,He,wanted,to,be,a,millionaire.,?,?,?,?,?,?,?,?,?,?,?,?,?,?,?,?
Croatian,206,24,Perfect_Match,m,1192,m,20,Did Jerry want to be a millionaire?,yes,,,562,441,498,1218,526,408,394,418,393,405,400,785,456,409,444,428,728,0,0,0,0,0,0,0,0,0,0,0,0,0,0,0,0,Tense,,,,Since,he,finished,"university,",Jerry,has,thought,about,starting,a,business.,He,wanted,to,be,a,millionaire.,?,?,?,?,?,?,?,?,?,?,?,?,?,?,?,?
Croatian,209,49,Perfect_Mismatch,m,1326,m,20,Did Jerry want to be a millionaire?,yes,,,295,273,313,318,271,241,380,246,265,274,234,262,307,307,359,263,241,0,0,0,0,0,0,0,0,0,0,0,0,0,0,0,0,Tense,no,,,When,he,finished,"university,",Jerry,has,thought,about,starting,a,business.,He,wanted,to,be,a,millionaire.,?,?,?,?,?,?,?,?,?,?,?,?,?,?,?,?
Croatian,210,65,Perfect_Match,m,1769,m,20,Did Jerry want to be a millionaire?,yes,,,296,403,417,403,412,290,607,275,545,343,501,535,524,323,345,269,1525,0,0,0,0,0,0,0,0,0,0,0,0,0,0,0,0,Tense,,,,Since,he,finished,"university,",Jerry,has,thought,about,starting,a,business.,He,wanted,to,be,a,millionaire.,?,?,?,?,?,?,?,?,?,?,?,?,?,?,?,?
Croatian,214,69,Perfect_Match,m,1444,m,20,Did Jerry want to be a millionaire?,yes,,,264,450,372,293,492,310,339,318,305,325,306,280,347,446,250,272,264,0,0,0,0,0,0,0,0,0,0,0,0,0,0,0,0,Tense,,,,Since,he,finished,"university,",Jerry,has,thought,about,starting,a,business.,He,wanted,to,be,a,millionaire.,?,?,?,?,?,?,?,?,?,?,?,?,?,?,?,?
Croatian,221,2,Perfect_Mismatch,m,1310,m,20,Did Jerry want to be a millionaire?,yes,,,361,267,337,400,444,351,383,316,381,295,289,367,293,326,318,371,1017,0,0,0,0,0,0,0,0,0,0,0,0,0,0,0,0,Tense,no,,,When,he,finished,"university,",Jerry,has,thought,about,starting,a,business.,He,wanted,to,be,a,millionaire.,?,?,?,?,?,?,?,?,?,?,?,?,?,?,?,?
Croatian,222,73,Perfect_Match,m,767,m,20,Did Jerry want to be a millionaire?,yes,,,210,200,193,201,230,199,186,229,165,191,201,165,196,171,208,218,208,0,0,0,0,0,0,0,0,0,0,0,0,0,0,0,0,Tense,,,,Since,he,finished,"university,",Jerry,has,thought,about,starting,a,business.,He,wanted,to,be,a,millionaire.,?,?,?,?,?,?,?,?,?,?,?,?,?,?,?,?
Croatian,225,59,Perfect_Mismatch,m,2291,m,20,Did Jerry want to be a millionaire?,yes,,,2994,615,457,603,321,280,278,283,260,274,236,267,576,279,260,259,544,0,0,0,0,0,0,0,0,0,0,0,0,0,0,0,0,Tense,no,,,When,he,finished,"university,",Jerry,has,thought,about,starting,a,business.,He,wanted,to,be,a,millionaire.,?,?,?,?,?,?,?,?,?,?,?,?,?,?,?,?
Croatian,226,80,Perfect_Match,m,1355,m,20,Did Jerry want to be a millionaire?,yes,,,153,158,155,127,162,153,162,153,169,153,179,187,135,197,163,163,200,0,0,0,0,0,0,0,0,0,0,0,0,0,0,0,0,Tense,,,,Since,he,finished,"university,",Jerry,has,thought,about,starting,a,business.,He,wanted,to,be,a,millionaire.,?,?,?,?,?,?,?,?,?,?,?,?,?,?,?,?
Croatian,229,60,Perfect_Mismatch,m,1123,m,20,Did Jerry want to be a millionaire?,yes,,,307,362,448,360,413,317,372,369,408,324,335,325,334,361,388,322,479,0,0,0,0,0,0,0,0,0,0,0,0,0,0,0,0,Tense,no,,,When,he,finished,"university,",Jerry,has,thought,about,starting,a,business.,He,wanted,to,be,a,millionaire.,?,?,?,?,?,?,?,?,?,?,?,?,?,?,?,?
Croatian,230,25,Perfect_Match,m,3238,m,20,Did Jerry want to be a millionaire?,yes,,,683,564,462,2489,426,313,241,1369,668,624,1642,520,402,540,1537,512,1940,0,0,0,0,0,0,0,0,0,0,0,0,0,0,0,0,Tense,,,,Since,he,finished,"university,",Jerry,has,thought,about,starting,a,business.,He,wanted,to,be,a,millionaire.,?,?,?,?,?,?,?,?,?,?,?,?,?,?,?,?
Croatian,234,60,Perfect_Match,m,882,m,20,Did Jerry want to be a millionaire?,yes,,,210,179,193,173,187,154,167,273,206,188,194,181,153,182,191,189,196,0,0,0,0,0,0,0,0,0,0,0,0,0,0,0,0,Tense,,,,Since,he,finished,"university,",Jerry,has,thought,about,starting,a,business.,He,wanted,to,be,a,millionaire.,?,?,?,?,?,?,?,?,?,?,?,?,?,?,?,?
Croatian,237,73,Perfect_Mismatch,m,1360,m,20,Did Jerry want to be a millionaire?,yes,,,302,332,213,276,259,307,227,413,275,326,322,333,305,341,317,308,282,0,0,0,0,0,0,0,0,0,0,0,0,0,0,0,0,Tense,no,,,When,he,finished,"university,",Jerry,has,thought,about,starting,a,business.,He,wanted,to,be,a,millionaire.,?,?,?,?,?,?,?,?,?,?,?,?,?,?,?,?
Croatian,201,83,Perfect_Mismatch,x,2372,x,4,Has Sam thought Jenny was ugly?,yes,,,469,351,374,360,329,487,376,262,348,434,316,236,276,304,296,333,353,263,243,302,0,0,0,0,0,0,0,0,0,0,0,0,0,Tense,no,,,When,he,saw,"her,",Sam,has,thought,Jenny,was,beautiful.,"However,",he,is,far,too,nervous,to,speak,to,her.,?,?,?,?,?,?,?,?,?,?,?,?,?
Croatian,205,62,Perfect_Mismatch,x,2822,x,4,Has Sam thought Jenny was ugly?,yes,,,209,361,308,259,320,494,470,794,291,607,431,397,378,411,360,520,428,478,354,344,0,0,0,0,0,0,0,0,0,0,0,0,0,Tense,no,,,When,he,saw,"her,",Sam,has,thought,Jenny,was,beautiful.,"However,",he,is,far,too,nervous,to,speak,to,her.,?,?,?,?,?,?,?,?,?,?,?,?,?
Croatian,209,76,Perfect_Mismatch,x,3222,x,4,Has Sam thought Jenny was ugly?,yes,,,311,295,200,463,220,199,178,232,290,302,275,268,204,320,141,180,307,337,193,193,0,0,0,0,0,0,0,0,0,0,0,0,0,Tense,no,,,When,he,saw,"her,",Sam,has,thought,Jenny,was,beautiful.,"However,",he,is,far,too,nervous,to,speak,to,her.,?,?,?,?,?,?,?,?,?,?,?,?,?
Croatian,221,72,Perfect_Mismatch,x,2351,x,4,Has Sam thought Jenny was ugly?,yes,,,163,144,150,227,227,182,135,141,148,143,315,236,188,231,219,188,205,207,220,222,0,0,0,0,0,0,0,0,0,0,0,0,0,Tense,no,,,When,he,saw,"her,",Sam,has,thought,Jenny,was,beautiful.,"However,",he,is,far,too,nervous,to,speak,to,her.,?,?,?,?,?,?,?,?,?,?,?,?,?
Croatian,225,35,Perfect_Mismatch,x,1818,x,4,Has Sam thought Jenny was ugly?,yes,,,296,212,1249,367,668,301,233,423,268,546,310,272,274,286,390,437,291,355,751,284,0,0,0,0,0,0,0,0,0,0,0,0,0,Tense,no,,,When,he,saw,"her,",Sam,has,thought,Jenny,was,beautiful.,"However,",he,is,far,too,nervous,to,speak,to,her.,?,?,?,?,?,?,?,?,?,?,?,?,?
Croatian,229,62,Perfect_Mismatch,x,2174,x,4,Has Sam thought Jenny was ugly?,yes,,,330,356,369,486,419,404,323,337,346,310,351,561,438,352,296,342,452,319,355,323,0,0,0,0,0,0,0,0,0,0,0,0,0,Tense,no,,,When,he,saw,"her,",Sam,has,thought,Jenny,was,beautiful.,"However,",he,is,far,too,nervous,to,speak,to,her.,?,?,?,?,?,?,?,?,?,?,?,?,?
Croatian,237,65,Perfect_Mismatch,x,2303,x,4,Has Sam thought Jenny was ugly?,yes,,,259,226,246,258,241,239,282,608,301,264,260,229,284,254,240,284,305,271,265,262,0,0,0,0,0,0,0,0,0,0,0,0,0,Tense,no,,,When,he,saw,"her,",Sam,has,thought,Jenny,was,beautiful.,"However,",he,is,far,too,nervous,to,speak,to,her.,?,?,?,?,?,?,?,?,?,?,?,?,?
Croatian,201,59,Perfect_Match,x,1836,x,3,Has the aunt visited our house?,yes,265,304,321,527,162,316,479,206,325,219,229,223,438,317,286,373,0,0,0,0,0,0,0,0,0,0,0,0,0,0,0,0,0,0,0,Tense,,Since,he,moved,"in,",my,old,neighbor,has,visited,our,house.,He,brought,us,a,cake.,?,?,?,?,?,?,?,?,?,?,?,?,?,?,?,?,?,?,?
Croatian,205,5,Perfect_Match,x,4218,x,3,Has the aunt visited our house?,yes,602,613,755,697,679,788,998,617,841,664,835,570,728,686,853,922,0,0,0,0,0,0,0,0,0,0,0,0,0,0,0,0,0,0,0,Tense,,Since,he,moved,"in,",my,old,neighbor,has,visited,our,house.,He,brought,us,a,cake.,?,?,?,?,?,?,?,?,?,?,?,?,?,?,?,?,?,?,?
Croatian,209,17,Perfect_Match,x,4182,x,3,Has the aunt visited our house?,yes,387,332,619,305,297,267,348,452,315,386,2946,485,798,498,355,510,0,0,0,0,0,0,0,0,0,0,0,0,0,0,0,0,0,0,0,Tense,,Since,he,moved,"in,",my,old,neighbor,has,visited,our,house.,He,brought,us,a,cake.,?,?,?,?,?,?,?,?,?,?,?,?,?,?,?,?,?,?,?
Croatian,221,46,Perfect_Match,x,5486,x,3,Has the aunt visited our house?,yes,225,211,172,219,219,315,194,241,225,779,298,434,356,277,278,332,0,0,0,0,0,0,0,0,0,0,0,0,0,0,0,0,0,0,0,Tense,,Since,he,moved,"in,",my,old,neighbor,has,visited,our,house.,He,brought,us,a,cake.,?,?,?,?,?,?,?,?,?,?,?,?,?,?,?,?,?,?,?
Croatian,225,51,Perfect_Match,x,3466,x,3,Has the aunt visited our house?,yes,1031,246,741,260,318,289,318,680,276,281,286,420,360,251,297,342,0,0,0,0,0,0,0,0,0,0,0,0,0,0,0,0,0,0,0,Tense,,Since,he,moved,"in,",my,old,neighbor,has,visited,our,house.,He,brought,us,a,cake.,?,?,?,?,?,?,?,?,?,?,?,?,?,?,?,?,?,?,?
Croatian,229,31,Perfect_Match,x,1425,x,3,Has the aunt visited our house?,yes,310,294,290,344,342,334,411,306,299,336,313,374,382,310,324,325,0,0,0,0,0,0,0,0,0,0,0,0,0,0,0,0,0,0,0,Tense,,Since,he,moved,"in,",my,old,neighbor,has,visited,our,house.,He,brought,us,a,cake.,?,?,?,?,?,?,?,?,?,?,?,?,?,?,?,?,?,?,?
Croatian,237,63,Perfect_Match,m,1880,x,3,Has the aunt visited our house?,yes,383,271,247,263,243,293,334,329,1102,476,603,478,873,401,361,467,0,0,0,0,0,0,0,0,0,0,0,0,0,0,0,0,0,0,0,Tense,,Since,he,moved,"in,",my,old,neighbor,has,visited,our,house.,He,brought,us,a,cake.,?,?,?,?,?,?,?,?,?,?,?,?,?,?,?,?,?,?,?
Croatian,203,20,Perfect_Match,x,4691,x,5,Has James gone running every day?,yes,,,,373,233,219,313,349,292,277,284,295,411,385,285,284,286,295,291,0,0,0,0,0,0,0,0,0,0,0,0,0,0,0,0,Tense,,,,,Since,the,"summer,",James,has,gone,swimming,every,day.,Now,he,is,getting,bored,of,it.,?,?,?,?,?,?,?,?,?,?,?,?,?,?,?,?
Croatian,207,72,Perfect_Match,x,2193,x,5,Has James gone running every day?,yes,,,,321,257,475,303,347,296,313,295,268,329,347,270,343,332,366,222,0,0,0,0,0,0,0,0,0,0,0,0,0,0,0,0,Tense,,,,,Since,the,"summer,",James,has,gone,swimming,every,day.,Now,he,is,getting,bored,of,it.,?,?,?,?,?,?,?,?,?,?,?,?,?,?,?,?
Croatian,215,11,Perfect_Match,m,2674,x,5,Has James gone running every day?,yes,,,,448,341,439,401,294,249,254,302,288,481,272,277,234,278,298,252,0,0,0,0,0,0,0,0,0,0,0,0,0,0,0,0,Tense,,,,,Since,the,"summer,",James,has,gone,swimming,every,day.,Now,he,is,getting,bored,of,it.,?,?,?,?,?,?,?,?,?,?,?,?,?,?,?,?
Croatian,227,43,Perfect_Match,x,2132,x,5,Has James gone running every day?,yes,,,,330,403,382,361,337,324,299,541,610,1136,410,323,350,71,195,702,0,0,0,0,0,0,0,0,0,0,0,0,0,0,0,0,Tense,,,,,Since,the,"summer,",James,has,gone,swimming,every,day.,Now,he,is,getting,bored,of,it.,?,?,?,?,?,?,?,?,?,?,?,?,?,?,?,?
Croatian,231,23,Perfect_Match,x,2405,x,5,Has James gone running every day?,yes,,,,371,356,722,275,333,248,254,278,276,307,275,220,274,257,325,261,0,0,0,0,0,0,0,0,0,0,0,0,0,0,0,0,Tense,,,,,Since,the,"summer,",James,has,gone,swimming,every,day.,Now,he,is,getting,bored,of,it.,?,?,?,?,?,?,?,?,?,?,?,?,?,?,?,?
Croatian,235,84,Perfect_Match,x,1511,x,5,Has James gone running every day?,yes,,,,270,299,240,512,554,328,1085,473,707,276,258,262,253,311,313,247,0,0,0,0,0,0,0,0,0,0,0,0,0,0,0,0,Tense,,,,,Since,the,"summer,",James,has,gone,swimming,every,day.,Now,he,is,getting,bored,of,it.,?,?,?,?,?,?,?,?,?,?,?,?,?,?,?,?
Croatian,239,41,Perfect_Match,x,1502,x,5,Has James gone running every day?,yes,,,,422,284,488,253,449,341,500,410,496,362,329,287,316,308,303,272,0,0,0,0,0,0,0,0,0,0,0,0,0,0,0,0,Tense,,,,,Since,the,"summer,",James,has,gone,swimming,every,day.,Now,he,is,getting,bored,of,it.,?,?,?,?,?,?,?,?,?,?,?,?,?,?,?,?
Croatian,243,59,Perfect_Match,x,1893,x,5,Has James gone running every day?,yes,,,,380,445,639,1463,341,411,535,518,395,416,351,383,375,406,391,331,0,0,0,0,0,0,0,0,0,0,0,0,0,0,0,0,Tense,,,,,Since,the,"summer,",James,has,gone,swimming,every,day.,Now,he,is,getting,bored,of,it.,?,?,?,?,?,?,?,?,?,?,?,?,?,?,?,?
Croatian,202,72,Perfect_Match,x,1567,x,12,Has Kate studied Russian in her spare time?,yes,,,,265,174,160,120,396,111,304,149,287,235,225,346,181,174,235,190,254,0,0,0,0,0,0,0,0,0,0,0,0,0,0,0,Tense,,,,,Since,last,"year,",Kate,has,studied,French,in,her,spare,time.,She,now,wants,to,learn,German.,?,?,?,?,?,?,?,?,?,?,?,?,?,?,?
Croatian,206,32,Perfect_Match,x,2712,x,12,Has Kate studied Russian in her spare time?,yes,,,,306,281,312,289,295,491,510,522,472,488,387,420,344,440,447,440,866,0,0,0,0,0,0,0,0,0,0,0,0,0,0,0,Tense,,,,,Since,last,"year,",Kate,has,studied,French,in,her,spare,time.,She,now,wants,to,learn,German.,?,?,?,?,?,?,?,?,?,?,?,?,?,?,?
Croatian,210,84,Perfect_Match,x,2778,x,12,Has Kate studied Russian in her spare time?,yes,,,,407,422,469,286,339,243,580,249,281,259,358,322,255,292,270,279,277,0,0,0,0,0,0,0,0,0,0,0,0,0,0,0,Tense,,,,,Since,last,"year,",Kate,has,studied,French,in,her,spare,time.,She,now,wants,to,learn,German.,?,?,?,?,?,?,?,?,?,?,?,?,?,?,?
Croatian,214,76,Perfect_Match,x,2074,x,12,Has Kate studied Russian in her spare time?,yes,,,,356,506,572,585,525,236,512,239,355,309,431,334,316,279,265,294,311,0,0,0,0,0,0,0,0,0,0,0,0,0,0,0,Tense,,,,,Since,last,"year,",Kate,has,studied,French,in,her,spare,time.,She,now,wants,to,learn,German.,?,?,?,?,?,?,?,?,?,?,?,?,?,?,?
Croatian,222,33,Perfect_Match,x,901,x,12,Has Kate studied Russian in her spare time?,yes,,,,216,156,177,190,358,268,314,270,277,249,292,342,249,176,197,324,226,0,0,0,0,0,0,0,0,0,0,0,0,0,0,0,Tense,,,,,Since,last,"year,",Kate,has,studied,French,in,her,spare,time.,She,now,wants,to,learn,German.,?,?,?,?,?,?,?,?,?,?,?,?,?,?,?
Croatian,226,32,Perfect_Match,x,1305,x,12,Has Kate studied Russian in her spare time?,yes,,,,118,150,161,178,210,188,221,490,164,179,177,173,190,190,180,211,183,0,0,0,0,0,0,0,0,0,0,0,0,0,0,0,Tense,,,,,Since,last,"year,",Kate,has,studied,French,in,her,spare,time.,She,now,wants,to,learn,German.,?,?,?,?,?,?,?,?,?,?,?,?,?,?,?
Croatian,230,18,Perfect_Match,x,2080,x,12,Has Kate studied Russian in her spare time?,yes,,,,1050,557,388,1328,472,382,582,357,366,645,427,2552,459,391,382,533,882,0,0,0,0,0,0,0,0,0,0,0,0,0,0,0,Tense,,,,,Since,last,"year,",Kate,has,studied,French,in,her,spare,time.,She,now,wants,to,learn,German.,?,?,?,?,?,?,?,?,?,?,?,?,?,?,?
Croatian,234,73,Perfect_Match,x,1232,x,12,Has Kate studied Russian in her spare time?,yes,,,,494,251,174,178,186,166,197,212,204,172,171,201,229,193,200,180,221,0,0,0,0,0,0,0,0,0,0,0,0,0,0,0,Tense,,,,,Since,last,"year,",Kate,has,studied,French,in,her,spare,time.,She,now,wants,to,learn,German.,?,?,?,?,?,?,?,?,?,?,?,?,?,?,?
Croatian,203,30,Perfect_Mismatch,x,2005,x,18,Is the army a safe profession?,yes,,,,344,258,207,353,401,231,270,225,273,327,444,199,270,222,299,0,0,0,0,0,0,0,0,0,0,0,0,0,0,0,0,0,Tense,no,,,,Many,years,"ago,",Judith,has,thought,about,joining,the,army.,It,is,a,dangerous,profession.,?,?,?,?,?,?,?,?,?,?,?,?,?,?,?,?,?
Croatian,207,23,Perfect_Mismatch,x,1774,x,18,Is the army a safe profession?,yes,,,,476,346,301,328,343,304,355,306,299,276,329,358,409,304,263,0,0,0,0,0,0,0,0,0,0,0,0,0,0,0,0,0,Tense,no,,,,Many,years,"ago,",Judith,has,thought,about,joining,the,army.,It,is,a,dangerous,profession.,?,?,?,?,?,?,?,?,?,?,?,?,?,?,?,?,?
Croatian,215,16,Perfect_Mismatch,x,1677,x,18,Is the army a safe profession?,yes,,,,314,303,444,268,371,297,415,298,455,360,342,285,293,259,235,0,0,0,0,0,0,0,0,0,0,0,0,0,0,0,0,0,Tense,no,,,,Many,years,"ago,",Judith,has,thought,about,joining,the,army.,It,is,a,dangerous,profession.,?,?,?,?,?,?,?,?,?,?,?,?,?,?,?,?,?
Croatian,227,48,Perfect_Mismatch,x,2561,x,18,Is the army a safe profession?,yes,,,,362,161,443,373,222,332,444,300,589,507,310,365,429,439,390,0,0,0,0,0,0,0,0,0,0,0,0,0,0,0,0,0,Tense,no,,,,Many,years,"ago,",Judith,has,thought,about,joining,the,army.,It,is,a,dangerous,profession.,?,?,?,?,?,?,?,?,?,?,?,?,?,?,?,?,?
Croatian,231,16,Perfect_Mismatch,x,1732,x,18,Is the army a safe profession?,yes,,,,223,269,236,295,263,261,278,250,301,299,415,341,368,267,304,0,0,0,0,0,0,0,0,0,0,0,0,0,0,0,0,0,Tense,no,,,,Many,years,"ago,",Judith,has,thought,about,joining,the,army.,It,is,a,dangerous,profession.,?,?,?,?,?,?,?,?,?,?,?,?,?,?,?,?,?
Croatian,235,82,Perfect_Mismatch,x,2420,x,18,Is the army a safe profession?,yes,,,,308,306,260,357,285,583,299,336,405,269,340,255,432,456,395,0,0,0,0,0,0,0,0,0,0,0,0,0,0,0,0,0,Tense,no,,,,Many,years,"ago,",Judith,has,thought,about,joining,the,army.,It,is,a,dangerous,profession.,?,?,?,?,?,?,?,?,?,?,?,?,?,?,?,?,?
Croatian,239,31,Perfect_Mismatch,x,2159,x,18,Is the army a safe profession?,yes,,,,376,305,385,328,334,302,332,275,334,259,374,276,277,307,312,0,0,0,0,0,0,0,0,0,0,0,0,0,0,0,0,0,Tense,no,,,,Many,years,"ago,",Judith,has,thought,about,joining,the,army.,It,is,a,dangerous,profession.,?,?,?,?,?,?,?,?,?,?,?,?,?,?,?,?,?
Croatian,243,55,Perfect_Mismatch,x,1472,x,18,Is the army a safe profession?,yes,,,,308,282,377,339,284,358,372,294,337,276,507,301,397,415,426,0,0,0,0,0,0,0,0,0,0,0,0,0,0,0,0,0,Tense,no,,,,Many,years,"ago,",Judith,has,thought,about,joining,the,army.,It,is,a,dangerous,profession.,?,?,?,?,?,?,?,?,?,?,?,?,?,?,?,?,?
Croatian,202,29,Perfect_Mismatch,m,1904,x,9,Has Matt been a successful musician?,yes,,,379,241,241,389,319,221,526,189,359,314,367,243,277,313,344,227,286,0,0,0,0,0,0,0,0,0,0,0,0,0,0,0,0,Tense,no,,,Once,many,years,"ago,",Matt,has,been,a,successful,businessman.,He,now,feels,unsatisfied,with,his,life.,?,?,?,?,?,?,?,?,?,?,?,?,?,?,?,?
Croatian,206,13,Perfect_Mismatch,x,2935,x,9,Has Matt been a successful musician?,yes,,,494,672,654,622,635,713,649,450,479,503,438,380,434,462,512,389,431,0,0,0,0,0,0,0,0,0,0,0,0,0,0,0,0,Tense,no,,,Once,many,years,"ago,",Matt,has,been,a,successful,businessman.,He,now,feels,unsatisfied,with,his,life.,?,?,?,?,?,?,?,?,?,?,?,?,?,?,?,?
Croatian,210,44,Perfect_Mismatch,x,2542,x,9,Has Matt been a successful musician?,yes,,,387,340,372,323,398,363,401,601,444,556,439,397,492,1152,414,340,745,0,0,0,0,0,0,0,0,0,0,0,0,0,0,0,0,Tense,no,,,Once,many,years,"ago,",Matt,has,been,a,successful,businessman.,He,now,feels,unsatisfied,with,his,life.,?,?,?,?,?,?,?,?,?,?,?,?,?,?,?,?
Croatian,214,73,Perfect_Mismatch,m,3948,x,9,Has Matt been a successful musician?,yes,,,352,298,362,345,382,333,320,254,262,258,320,282,260,268,359,279,309,0,0,0,0,0,0,0,0,0,0,0,0,0,0,0,0,Tense,no,,,Once,many,years,"ago,",Matt,has,been,a,successful,businessman.,He,now,feels,unsatisfied,with,his,life.,?,?,?,?,?,?,?,?,?,?,?,?,?,?,?,?
Croatian,222,11,Perfect_Mismatch,x,2809,x,9,Has Matt been a successful musician?,yes,,,387,317,359,354,436,365,288,385,330,349,426,237,202,306,294,300,566,0,0,0,0,0,0,0,0,0,0,0,0,0,0,0,0,Tense,no,,,Once,many,years,"ago,",Matt,has,been,a,successful,businessman.,He,now,feels,unsatisfied,with,his,life.,?,?,?,?,?,?,?,?,?,?,?,?,?,?,?,?
Croatian,226,60,Perfect_Mismatch,m,3903,x,9,Has Matt been a successful musician?,yes,,,247,155,197,174,174,188,174,181,192,307,158,176,188,171,174,181,179,0,0,0,0,0,0,0,0,0,0,0,0,0,0,0,0,Tense,no,,,Once,many,years,"ago,",Matt,has,been,a,successful,businessman.,He,now,feels,unsatisfied,with,his,life.,?,?,?,?,?,?,?,?,?,?,?,?,?,?,?,?
Croatian,230,40,Perfect_Mismatch,x,3138,x,9,Has Matt been a successful musician?,yes,,,970,1341,1231,750,689,409,352,355,669,398,977,792,345,338,349,347,368,0,0,0,0,0,0,0,0,0,0,0,0,0,0,0,0,Tense,no,,,Once,many,years,"ago,",Matt,has,been,a,successful,businessman.,He,now,feels,unsatisfied,with,his,life.,?,?,?,?,?,?,?,?,?,?,?,?,?,?,?,?
Croatian,234,18,Perfect_Mismatch,x,1847,x,9,Has Matt been a successful musician?,yes,,,379,217,215,223,229,211,236,219,251,239,220,230,203,214,227,231,235,0,0,0,0,0,0,0,0,0,0,0,0,0,0,0,0,Tense,no,,,Once,many,years,"ago,",Matt,has,been,a,successful,businessman.,He,now,feels,unsatisfied,with,his,life.,?,?,?,?,?,?,?,?,?,?,?,?,?,?,?,?
Croatian,204,45,Perfect_Match,x,1429,x,18,Is the army a safe profession?,yes,,,314,156,248,175,305,204,221,209,222,208,198,188,171,181,146,142,0,0,0,0,0,0,0,0,0,0,0,0,0,0,0,0,0,Tense,,,,For,many,years,"now,",Judith,has,thought,about,joining,the,army.,It,is,a,dangerous,profession.,?,?,?,?,?,?,?,?,?,?,?,?,?,?,?,?,?
Croatian,220,15,Perfect_Match,x,987,x,18,Is the army a safe profession?,yes,,,361,362,352,407,365,452,404,370,399,482,278,354,282,355,382,588,0,0,0,0,0,0,0,0,0,0,0,0,0,0,0,0,0,Tense,,,,For,many,years,"now,",Judith,has,thought,about,joining,the,army.,It,is,a,dangerous,profession.,?,?,?,?,?,?,?,?,?,?,?,?,?,?,?,?,?
Croatian,224,18,Perfect_Match,x,1896,x,18,Is the army a safe profession?,yes,,,401,489,575,479,601,476,462,666,535,499,538,490,403,415,450,471,0,0,0,0,0,0,0,0,0,0,0,0,0,0,0,0,0,Tense,,,,For,many,years,"now,",Judith,has,thought,about,joining,the,army.,It,is,a,dangerous,profession.,?,?,?,?,?,?,?,?,?,?,?,?,?,?,?,?,?
Croatian,228,59,Perfect_Match,x,2634,x,18,Is the army a safe profession?,yes,,,326,719,305,351,417,271,325,306,392,276,291,295,231,235,354,205,0,0,0,0,0,0,0,0,0,0,0,0,0,0,0,0,0,Tense,,,,For,many,years,"now,",Judith,has,thought,about,joining,the,army.,It,is,a,dangerous,profession.,?,?,?,?,?,?,?,?,?,?,?,?,?,?,?,?,?
Croatian,232,57,Perfect_Match,x,2302,x,18,Is the army a safe profession?,yes,,,385,713,343,427,533,385,412,434,490,409,365,409,342,302,330,506,0,0,0,0,0,0,0,0,0,0,0,0,0,0,0,0,0,Tense,,,,For,many,years,"now,",Judith,has,thought,about,joining,the,army.,It,is,a,dangerous,profession.,?,?,?,?,?,?,?,?,?,?,?,?,?,?,?,?,?
Croatian,240,2,Perfect_Match,x,2092,x,18,Is the army a safe profession?,yes,,,552,431,325,437,786,413,504,487,417,478,617,521,382,365,473,466,0,0,0,0,0,0,0,0,0,0,0,0,0,0,0,0,0,Tense,,,,For,many,years,"now,",Judith,has,thought,about,joining,the,army.,It,is,a,dangerous,profession.,?,?,?,?,?,?,?,?,?,?,?,?,?,?,?,?,?
Croatian,201,9,Perfect_Match,m,1427,m,7,Has Mark seen the film three times?,yes,,,,458,581,455,483,459,452,478,425,467,396,483,462,398,412,437,0,0,0,0,0,0,0,0,0,0,0,0,0,0,0,0,0,Tense,,,,,Since,last,"Friday,",Mark,has,seen,the,same,film,three,times.,He,really,loved,it.,?,?,?,?,?,?,?,?,?,?,?,?,?,?,?,?,?
Croatian,205,45,Perfect_Match,m,3852,m,7,Has Mark seen the film three times?,yes,,,,464,385,522,471,471,820,364,428,432,407,396,472,368,393,449,0,0,0,0,0,0,0,0,0,0,0,0,0,0,0,0,0,Tense,,,,,Since,last,"Friday,",Mark,has,seen,the,same,film,three,times.,He,really,loved,it.,?,?,?,?,?,?,?,?,?,?,?,?,?,?,?,?,?
Croatian,209,35,Perfect_Match,m,4132,m,7,Has Mark seen the film three times?,yes,,,,374,379,391,401,441,290,162,299,272,241,230,293,202,348,271,0,0,0,0,0,0,0,0,0,0,0,0,0,0,0,0,0,Tense,,,,,Since,last,"Friday,",Mark,has,seen,the,same,film,three,times.,He,really,loved,it.,?,?,?,?,?,?,?,?,?,?,?,?,?,?,?,?,?
Croatian,221,59,Perfect_Match,m,2274,m,7,Has Mark seen the film three times?,yes,,,,244,272,237,294,243,248,249,255,237,191,228,244,55,155,39,0,0,0,0,0,0,0,0,0,0,0,0,0,0,0,0,0,Tense,,,,,Since,last,"Friday,",Mark,has,seen,the,same,film,three,times.,He,really,loved,it.,?,?,?,?,?,?,?,?,?,?,?,?,?,?,?,?,?
Croatian,225,4,Perfect_Match,m,2355,m,7,Has Mark seen the film three times?,yes,,,,389,373,440,438,340,521,343,454,408,305,404,357,186,404,590,0,0,0,0,0,0,0,0,0,0,0,0,0,0,0,0,0,Tense,,,,,Since,last,"Friday,",Mark,has,seen,the,same,film,three,times.,He,really,loved,it.,?,?,?,?,?,?,?,?,?,?,?,?,?,?,?,?,?
Croatian,229,23,Perfect_Match,m,2310,m,7,Has Mark seen the film three times?,yes,,,,365,563,442,434,395,345,350,391,325,316,333,452,413,386,441,0,0,0,0,0,0,0,0,0,0,0,0,0,0,0,0,0,Tense,,,,,Since,last,"Friday,",Mark,has,seen,the,same,film,three,times.,He,really,loved,it.,?,?,?,?,?,?,?,?,?,?,?,?,?,?,?,?,?
Croatian,237,2,Perfect_Match,m,2111,m,7,Has Mark seen the film three times?,yes,,,,570,326,364,336,398,429,321,419,383,430,453,533,389,292,348,0,0,0,0,0,0,0,0,0,0,0,0,0,0,0,0,0,Tense,,,,,Since,last,"Friday,",Mark,has,seen,the,same,film,three,times.,He,really,loved,it.,?,?,?,?,?,?,?,?,?,?,?,?,?,?,?,?,?
Croatian,202,23,Perfect_Match,m,2388,m,24,Does Michael want to become a professional?,yes,,,,186,251,225,404,219,186,401,325,246,269,272,186,354,323,491,170,0,0,0,0,0,0,0,0,0,0,0,0,0,0,0,0,Tense,,,,,Since,the,"summer,",Michael,has,learnt,to,play,poker.,He,now,wants,to,become,a,professional.,?,?,?,?,?,?,?,?,?,?,?,?,?,?,?,?
Croatian,206,42,Perfect_Match,m,1512,m,24,Does Michael want to become a professional?,yes,,,,380,365,336,348,401,411,361,380,832,389,330,378,530,337,279,272,0,0,0,0,0,0,0,0,0,0,0,0,0,0,0,0,Tense,,,,,Since,the,"summer,",Michael,has,learnt,to,play,poker.,He,now,wants,to,become,a,professional.,?,?,?,?,?,?,?,?,?,?,?,?,?,?,?,?
Croatian,210,42,Perfect_Match,m,2185,m,24,Does Michael want to become a professional?,yes,,,,684,516,460,526,422,401,309,336,282,686,351,463,630,403,659,1783,0,0,0,0,0,0,0,0,0,0,0,0,0,0,0,0,Tense,,,,,Since,the,"summer,",Michael,has,learnt,to,play,poker.,He,now,wants,to,become,a,professional.,?,?,?,?,?,?,?,?,?,?,?,?,?,?,?,?
Croatian,214,25,Perfect_Match,m,2768,m,24,Does Michael want to become a professional?,yes,,,,373,346,345,428,367,488,296,294,297,346,288,302,313,278,294,480,0,0,0,0,0,0,0,0,0,0,0,0,0,0,0,0,Tense,,,,,Since,the,"summer,",Michael,has,learnt,to,play,poker.,He,now,wants,to,become,a,professional.,?,?,?,?,?,?,?,?,?,?,?,?,?,?,?,?
Croatian,222,49,Perfect_Match,m,1390,m,24,Does Michael want to become a professional?,yes,,,,438,230,220,219,233,184,212,393,270,186,271,258,173,215,200,267,0,0,0,0,0,0,0,0,0,0,0,0,0,0,0,0,Tense,,,,,Since,the,"summer,",Michael,has,learnt,to,play,poker.,He,now,wants,to,become,a,professional.,?,?,?,?,?,?,?,?,?,?,?,?,?,?,?,?
Croatian,226,25,Perfect_Match,m,1793,m,24,Does Michael want to become a professional?,yes,,,,180,214,147,170,174,154,151,179,160,151,203,171,184,194,167,246,0,0,0,0,0,0,0,0,0,0,0,0,0,0,0,0,Tense,,,,,Since,the,"summer,",Michael,has,learnt,to,play,poker.,He,now,wants,to,become,a,professional.,?,?,?,?,?,?,?,?,?,?,?,?,?,?,?,?
Croatian,230,6,Perfect_Match,m,2575,m,24,Does Michael want to become a professional?,yes,,,,760,632,1608,967,438,998,460,957,327,1416,521,398,474,516,369,1066,0,0,0,0,0,0,0,0,0,0,0,0,0,0,0,0,Tense,,,,,Since,the,"summer,",Michael,has,learnt,to,play,poker.,He,now,wants,to,become,a,professional.,?,?,?,?,?,?,?,?,?,?,?,?,?,?,?,?
Croatian,234,21,Perfect_Match,m,1259,m,24,Does Michael want to become a professional?,yes,,,,1141,111,713,179,182,245,328,384,228,200,217,261,301,222,216,167,0,0,0,0,0,0,0,0,0,0,0,0,0,0,0,0,Tense,,,,,Since,the,"summer,",Michael,has,learnt,to,play,poker.,He,now,wants,to,become,a,professional.,?,?,?,?,?,?,?,?,?,?,?,?,?,?,?,?
Croatian,203,29,Perfect_Match,m,2599,m,21,Did Sandra think about quitting her job?,yes,,,327,257,487,482,202,413,174,315,490,199,200,294,317,255,198,0,0,0,0,0,0,0,0,0,0,0,0,0,0,0,0,0,0,Tense,,,,For,the,last,"month,",Sandra,has,felt,unhappy,at,work.,She,even,thought,about,leaving.,?,?,?,?,?,?,?,?,?,?,?,?,?,?,?,?,?,?
Croatian,207,48,Perfect_Match,m,2794,m,21,Did Sandra think about quitting her job?,yes,,,455,362,413,360,356,345,356,333,377,603,323,375,319,324,341,0,0,0,0,0,0,0,0,0,0,0,0,0,0,0,0,0,0,Tense,,,,For,the,last,"month,",Sandra,has,felt,unhappy,at,work.,She,even,thought,about,leaving.,?,?,?,?,?,?,?,?,?,?,?,?,?,?,?,?,?,?
Croatian,215,13,Perfect_Match,m,1578,m,21,Did Sandra think about quitting her job?,yes,,,334,287,343,384,392,356,398,519,544,360,286,436,314,335,288,0,0,0,0,0,0,0,0,0,0,0,0,0,0,0,0,0,0,Tense,,,,For,the,last,"month,",Sandra,has,felt,unhappy,at,work.,She,even,thought,about,leaving.,?,?,?,?,?,?,?,?,?,?,?,?,?,?,?,?,?,?
Croatian,227,60,Perfect_Match,m,2940,m,21,Did Sandra think about quitting her job?,yes,,,295,359,382,513,325,328,247,273,285,248,260,446,357,198,263,0,0,0,0,0,0,0,0,0,0,0,0,0,0,0,0,0,0,Tense,,,,For,the,last,"month,",Sandra,has,felt,unhappy,at,work.,She,even,thought,about,leaving.,?,?,?,?,?,?,?,?,?,?,?,?,?,?,?,?,?,?
Croatian,231,75,Perfect_Match,m,1951,m,21,Did Sandra think about quitting her job?,yes,,,268,303,259,301,365,17,231,235,314,289,254,605,274,289,286,0,0,0,0,0,0,0,0,0,0,0,0,0,0,0,0,0,0,Tense,,,,For,the,last,"month,",Sandra,has,felt,unhappy,at,work.,She,even,thought,about,leaving.,?,?,?,?,?,?,?,?,?,?,?,?,?,?,?,?,?,?
Croatian,235,7,Perfect_Match,m,2630,m,21,Did Sandra think about quitting her job?,yes,,,390,304,333,355,706,365,314,308,308,460,331,290,336,303,329,0,0,0,0,0,0,0,0,0,0,0,0,0,0,0,0,0,0,Tense,,,,For,the,last,"month,",Sandra,has,felt,unhappy,at,work.,She,even,thought,about,leaving.,?,?,?,?,?,?,?,?,?,?,?,?,?,?,?,?,?,?
Croatian,239,75,Perfect_Match,m,2626,m,21,Did Sandra think about quitting her job?,yes,,,340,224,302,259,334,318,301,418,383,374,648,350,1255,293,293,0,0,0,0,0,0,0,0,0,0,0,0,0,0,0,0,0,0,Tense,,,,For,the,last,"month,",Sandra,has,felt,unhappy,at,work.,She,even,thought,about,leaving.,?,?,?,?,?,?,?,?,?,?,?,?,?,?,?,?,?,?
Croatian,243,63,Perfect_Match,m,2151,m,21,Did Sandra think about quitting her job?,yes,,,308,352,321,302,296,322,304,430,330,341,405,269,330,327,314,0,0,0,0,0,0,0,0,0,0,0,0,0,0,0,0,0,0,Tense,,,,For,the,last,"month,",Sandra,has,felt,unhappy,at,work.,She,even,thought,about,leaving.,?,?,?,?,?,?,?,?,?,?,?,?,?,?,?,?,?,?
Croatian,204,77,Perfect_Mismatch,x,2961,x,3,Has the aunt visited our house?,yes,,,,170,157,176,186,164,138,131,152,157,136,168,188,155,0,0,0,0,0,0,0,0,0,0,0,0,0,0,0,0,0,0,0,Tense,no,,,,"Yesterday,",my,old,neighbor,has,visited,our,house.,He,brought,us,a,cake.,?,?,?,?,?,?,?,?,?,?,?,?,?,?,?,?,?,?,?
Croatian,220,67,Perfect_Mismatch,x,1006,x,3,Has the aunt visited our house?,yes,,,,230,212,197,181,209,230,183,221,162,199,199,228,306,0,0,0,0,0,0,0,0,0,0,0,0,0,0,0,0,0,0,0,Tense,no,,,,"Yesterday,",my,old,neighbor,has,visited,our,house.,He,brought,us,a,cake.,?,?,?,?,?,?,?,?,?,?,?,?,?,?,?,?,?,?,?
Croatian,224,75,Perfect_Mismatch,x,1483,x,3,Has the aunt visited our house?,yes,,,,443,442,502,462,438,416,451,410,446,424,374,394,391,0,0,0,0,0,0,0,0,0,0,0,0,0,0,0,0,0,0,0,Tense,no,,,,"Yesterday,",my,old,neighbor,has,visited,our,house.,He,brought,us,a,cake.,?,?,?,?,?,?,?,?,?,?,?,?,?,?,?,?,?,?,?
Croatian,228,67,Perfect_Mismatch,m,2067,x,3,Has the aunt visited our house?,yes,,,,417,355,425,337,365,370,334,305,508,292,319,307,317,0,0,0,0,0,0,0,0,0,0,0,0,0,0,0,0,0,0,0,Tense,no,,,,"Yesterday,",my,old,neighbor,has,visited,our,house.,He,brought,us,a,cake.,?,?,?,?,?,?,?,?,?,?,?,?,?,?,?,?,?,?,?
Croatian,232,76,Perfect_Mismatch,x,2357,x,3,Has the aunt visited our house?,yes,,,,398,314,316,312,349,617,308,329,377,565,363,309,338,0,0,0,0,0,0,0,0,0,0,0,0,0,0,0,0,0,0,0,Tense,no,,,,"Yesterday,",my,old,neighbor,has,visited,our,house.,He,brought,us,a,cake.,?,?,?,?,?,?,?,?,?,?,?,?,?,?,?,?,?,?,?
Croatian,240,40,Perfect_Mismatch,x,4557,x,3,Has the aunt visited our house?,yes,,,,334,449,246,241,447,306,329,331,428,393,406,362,397,0,0,0,0,0,0,0,0,0,0,0,0,0,0,0,0,0,0,0,Tense,no,,,,"Yesterday,",my,old,neighbor,has,visited,our,house.,He,brought,us,a,cake.,?,?,?,?,?,?,?,?,?,?,?,?,?,?,?,?,?,?,?
