Group,Participant,Trial,Response,Condition,Correct,Item,q1,S1.RT,S2.RT,X5V,X4V,X3V,X2V,X1V,V,V1,V2,V3,V4,V5,S14.RT,S15.RT,S16.RT,S17.RT,S18.RT,S19.RT,S20.RT,S21.RT,S22.RT,S23.RT,S24.RT,S25.RT,S26.RT,S27.RT,S28.RT,S29.RT,S30.RT,S31.RT,S32.RT,S33.RT,S34.RT,S35.RT,Study,w1,w2,X5V,X4V,X3V,X2V,X1V,V,V1,V2,V3,V4,V5,w14,w15,w16,w17,w18,w19,w20,w21,w22,w23,w24,w25,w26,w27,w28,w29,w30,w31,w32,w33,w34,w35
Spanish,301,26,m,Past_Mismatch,m,2,Did the cat eat only fish?,0,0,340,304,301,425,275,289,423,281,314,320,308,885,400,0,0,0,0,0,0,0,0,0,0,0,0,0,0,0,0,0,0,0,0,Tense,?,?,Since,last,"week,",the,cat,ate,only,fish.,She,now,also,eats,meat.,?,?,?,?,?,?,?,?,?,?,?,?,?,?,?,?,?,?,?,?
Spanish,302,80,m,Past_Match,m,2,Did the cat eat only fish?,0,0,0,0,823,282,257,431,334,496,391,137,127,511,247,0,0,0,0,0,0,0,0,0,0,0,0,0,0,0,0,0,0,0,0,Tense,?,?,?,?,"Initially,",the,cat,ate,only,fish.,She,now,also,eats,meat.,?,?,?,?,?,?,?,?,?,?,?,?,?,?,?,?,?,?,?,?
Spanish,306,83,x,Past_Match,m,2,Did the cat eat only fish?,0,0,0,0,974,403,374,308,371,345,421,344,318,322,451,0,0,0,0,0,0,0,0,0,0,0,0,0,0,0,0,0,0,0,0,Tense,?,?,?,?,"Initially,",the,cat,ate,only,fish.,She,now,also,eats,meat.,?,?,?,?,?,?,?,?,?,?,?,?,?,?,?,?,?,?,?,?
Spanish,310,65,m,Past_Match,m,2,Did the cat eat only fish?,0,0,0,0,419,266,290,296,434,385,332,306,305,291,1382,0,0,0,0,0,0,0,0,0,0,0,0,0,0,0,0,0,0,0,0,Tense,?,?,?,?,"Initially,",the,cat,ate,only,fish.,She,now,also,eats,meat.,?,?,?,?,?,?,?,?,?,?,?,?,?,?,?,?,?,?,?,?
Spanish,321,27,x,Past_Mismatch,m,2,Did the cat eat only fish?,0,0,867,611,543,503,514,510,571,3706,429,412,447,351,936,0,0,0,0,0,0,0,0,0,0,0,0,0,0,0,0,0,0,0,0,Tense,?,?,Since,last,"week,",the,cat,ate,only,fish.,She,now,also,eats,meat.,?,?,?,?,?,?,?,?,?,?,?,?,?,?,?,?,?,?,?,?
Spanish,325,25,m,Past_Mismatch,m,2,Did the cat eat only fish?,0,0,307,499,350,303,203,217,579,311,294,218,136,122,104,0,0,0,0,0,0,0,0,0,0,0,0,0,0,0,0,0,0,0,0,Tense,?,?,Since,last,"week,",the,cat,ate,only,fish.,She,now,also,eats,meat.,?,?,?,?,?,?,?,?,?,?,?,?,?,?,?,?,?,?,?,?
Spanish,326,77,m,Past_Match,m,2,Did the cat eat only fish?,0,0,0,0,238,249,234,198,217,212,296,201,183,192,232,0,0,0,0,0,0,0,0,0,0,0,0,0,0,0,0,0,0,0,0,Tense,?,?,?,?,"Initially,",the,cat,ate,only,fish.,She,now,also,eats,meat.,?,?,?,?,?,?,?,?,?,?,?,?,?,?,?,?,?,?,?,?
Spanish,302,71,x,Past_Mismatch,x,23,Does Ben pay the same amount for his insurance? ,0,0,0,0,130,178,818,169,283,321,280,256,426,130,148,319,362,306,308,515,0,0,0,0,0,0,0,0,0,0,0,0,0,0,0,Tense,?,?,?,?,Since,"February,",Ben,crashed,his,car,four,times.,He,now,pays,a,lot,for,his,insurance.,?,?,?,?,?,?,?,?,?,?,?,?,?,?,?
Spanish,303,62,x,Past_Match,x,23,Does Ben pay the same amount for his insurance? ,0,0,0,0,305,316,260,289,233,404,283,302,769,293,226,401,287,339,351,464,0,0,0,0,0,0,0,0,0,0,0,0,0,0,0,Tense,?,?,?,?,In,"February,",Ben,crashed,his,car,four,times.,He,now,pays,a,lot,for,his,insurance.,?,?,?,?,?,?,?,?,?,?,?,?,?,?,?
Spanish,306,43,x,Past_Mismatch,x,23,Does Ben pay the same amount for his insurance? ,0,0,0,0,333,652,399,1203,492,331,813,448,506,1200,545,385,419,300,374,735,0,0,0,0,0,0,0,0,0,0,0,0,0,0,0,Tense,?,?,?,?,Since,"February,",Ben,crashed,his,car,four,times.,He,now,pays,a,lot,for,his,insurance.,?,?,?,?,?,?,?,?,?,?,?,?,?,?,?
Spanish,307,80,x,Past_Match,x,23,Does Ben pay the same amount for his insurance? ,0,0,0,0,791,576,305,464,356,422,459,338,431,298,485,273,314,337,361,420,0,0,0,0,0,0,0,0,0,0,0,0,0,0,0,Tense,?,?,?,?,In,"February,",Ben,crashed,his,car,four,times.,He,now,pays,a,lot,for,his,insurance.,?,?,?,?,?,?,?,?,?,?,?,?,?,?,?
Spanish,310,3,x,Past_Mismatch,x,23,Does Ben pay the same amount for his insurance? ,0,0,0,0,741,597,930,804,453,365,454,549,463,374,372,426,454,391,392,1134,0,0,0,0,0,0,0,0,0,0,0,0,0,0,0,Tense,?,?,?,?,Since,"February,",Ben,crashed,his,car,four,times.,He,now,pays,a,lot,for,his,insurance.,?,?,?,?,?,?,?,?,?,?,?,?,?,?,?
Spanish,315,83,x,Past_Match,x,23,Does Ben pay the same amount for his insurance? ,0,0,0,0,534,212,285,251,579,153,266,256,237,218,214,234,257,256,234,228,0,0,0,0,0,0,0,0,0,0,0,0,0,0,0,Tense,?,?,?,?,In,"February,",Ben,crashed,his,car,four,times.,He,now,pays,a,lot,for,his,insurance.,?,?,?,?,?,?,?,?,?,?,?,?,?,?,?
Spanish,319,25,x,Past_Match,x,23,Does Ben pay the same amount for his insurance? ,0,0,0,0,329,430,296,332,360,623,502,461,419,336,326,296,313,281,323,676,0,0,0,0,0,0,0,0,0,0,0,0,0,0,0,Tense,?,?,?,?,In,"February,",Ben,crashed,his,car,four,times.,He,now,pays,a,lot,for,his,insurance.,?,?,?,?,?,?,?,?,?,?,?,?,?,?,?
Spanish,323,60,x,Past_Match,x,23,Does Ben pay the same amount for his insurance? ,0,0,0,0,312,397,755,408,761,411,369,344,405,538,404,762,377,484,314,604,0,0,0,0,0,0,0,0,0,0,0,0,0,0,0,Tense,?,?,?,?,In,"February,",Ben,crashed,his,car,four,times.,He,now,pays,a,lot,for,his,insurance.,?,?,?,?,?,?,?,?,?,?,?,?,?,?,?
Spanish,326,49,x,Past_Mismatch,x,23,Does Ben pay the same amount for his insurance? ,0,0,0,0,459,420,361,317,269,245,401,416,287,928,281,444,274,278,252,490,0,0,0,0,0,0,0,0,0,0,0,0,0,0,0,Tense,?,?,?,?,Since,"February,",Ben,crashed,his,car,four,times.,He,now,pays,a,lot,for,his,insurance.,?,?,?,?,?,?,?,?,?,?,?,?,?,?,?
Spanish,327,75,x,Past_Match,x,23,Does Ben pay the same amount for his insurance? ,0,0,0,0,344,261,379,356,358,456,298,339,380,273,284,509,349,286,373,645,0,0,0,0,0,0,0,0,0,0,0,0,0,0,0,Tense,?,?,?,?,In,"February,",Ben,crashed,his,car,four,times.,He,now,pays,a,lot,for,his,insurance.,?,?,?,?,?,?,?,?,?,?,?,?,?,?,?
Spanish,302,78,x,Past_Mismatch,x,19,Does Alan like baking bread now?,0,246,113,193,168,143,191,779,195,180,410,544,250,440,184,133,170,162,0,0,0,0,0,0,0,0,0,0,0,0,0,0,0,0,0,Tense,?,Since,he,first,started,"cooking,",Alan,enjoyed,making,pasta,most,of,all.,He,now,likes,making,desserts.,?,?,?,?,?,?,?,?,?,?,?,?,?,?,?,?,?
Spanish,306,10,m,Past_Mismatch,x,19,Does Alan like baking bread now?,0,899,639,520,694,653,762,529,494,515,488,465,494,545,801,604,775,837,0,0,0,0,0,0,0,0,0,0,0,0,0,0,0,0,0,Tense,?,Since,he,first,started,"cooking,",Alan,enjoyed,making,pasta,most,of,all.,He,now,likes,making,desserts.,?,?,?,?,?,?,?,?,?,?,?,?,?,?,?,?,?
Spanish,310,26,x,Past_Mismatch,x,19,Does Alan like baking bread now?,0,305,348,377,663,911,1331,697,355,367,628,828,1439,689,523,533,488,986,0,0,0,0,0,0,0,0,0,0,0,0,0,0,0,0,0,Tense,?,Since,he,first,started,"cooking,",Alan,enjoyed,making,pasta,most,of,all.,He,now,likes,making,desserts.,?,?,?,?,?,?,?,?,?,?,?,?,?,?,?,?,?
Spanish,326,10,x,Past_Mismatch,x,19,Does Alan like baking bread now?,0,1085,270,225,428,392,1270,280,433,351,345,292,239,1178,259,227,389,1048,0,0,0,0,0,0,0,0,0,0,0,0,0,0,0,0,0,Tense,?,Since,he,first,started,"cooking,",Alan,enjoyed,making,pasta,most,of,all.,He,now,likes,making,desserts.,?,?,?,?,?,?,?,?,?,?,?,?,?,?,?,?,?
Spanish,301,52,m,Past_Match,m,21,Did Sandra think about quitting her job?,0,0,0,0,267,237,268,287,239,272,355,332,268,248,271,303,0,0,0,0,0,0,0,0,0,0,0,0,0,0,0,0,0,0,0,Tense,?,?,?,?,Last,"month,",Sandra,felt,unhappy,at,work.,She,even,thought,about,leaving.,?,?,?,?,?,?,?,?,?,?,?,?,?,?,?,?,?,?,?
Spanish,302,41,m,Past_Mismatch,m,11,Did Tom feel very unwell?,0,139,133,132,149,135,333,340,103,788,360,94,147,137,371,289,328,0,0,0,0,0,0,0,0,0,0,0,0,0,0,0,0,0,0,Tense,?,For,the,last,three,"days,",Tom,felt,very,unwell.,He,could,not,even,go,to,work.,?,?,?,?,?,?,?,?,?,?,?,?,?,?,?,?,?,?
Spanish,303,13,m,Past_Match,m,11,Did Tom feel very unwell?,0,0,0,344,525,451,296,341,284,336,556,308,289,281,282,295,308,0,0,0,0,0,0,0,0,0,0,0,0,0,0,0,0,0,0,Tense,?,?,?,Three,days,"ago,",Tom,felt,very,unwell.,He,could,not,even,go,to,work.,?,?,?,?,?,?,?,?,?,?,?,?,?,?,?,?,?,?
Spanish,304,37,m,Past_Mismatch,m,21,Did Sandra think about quitting her job?,0,0,322,349,356,306,694,381,363,334,381,406,401,873,431,740,0,0,0,0,0,0,0,0,0,0,0,0,0,0,0,0,0,0,0,Tense,?,?,For,the,last,"month,",Sandra,felt,unhappy,at,work.,She,even,thought,about,leaving.,?,?,?,?,?,?,?,?,?,?,?,?,?,?,?,?,?,?,?
Spanish,306,58,m,Past_Mismatch,m,11,Did Tom feel very unwell?,0,646,425,410,287,355,373,405,407,340,667,387,377,407,351,369,581,0,0,0,0,0,0,0,0,0,0,0,0,0,0,0,0,0,0,Tense,?,For,the,last,three,"days,",Tom,felt,very,unwell.,He,could,not,even,go,to,work.,?,?,?,?,?,?,?,?,?,?,?,?,?,?,?,?,?,?
Spanish,307,69,m,Past_Match,m,11,Did Tom feel very unwell?,0,0,0,358,452,388,309,418,358,380,347,269,334,337,293,286,361,0,0,0,0,0,0,0,0,0,0,0,0,0,0,0,0,0,0,Tense,?,?,?,Three,days,"ago,",Tom,felt,very,unwell.,He,could,not,even,go,to,work.,?,?,?,?,?,?,?,?,?,?,?,?,?,?,?,?,?,?
Spanish,308,43,m,Past_Mismatch,m,21,Did Sandra think about quitting her job?,0,0,401,206,222,199,223,243,219,229,231,207,279,255,211,196,0,0,0,0,0,0,0,0,0,0,0,0,0,0,0,0,0,0,0,Tense,?,?,For,the,last,"month,",Sandra,felt,unhappy,at,work.,She,even,thought,about,leaving.,?,?,?,?,?,?,?,?,?,?,?,?,?,?,?,?,?,?,?
Spanish,310,32,m,Past_Mismatch,m,11,Did Tom feel very unwell?,0,419,331,306,276,258,417,317,344,304,888,222,277,253,256,641,402,0,0,0,0,0,0,0,0,0,0,0,0,0,0,0,0,0,0,Tense,?,For,the,last,three,"days,",Tom,felt,very,unwell.,He,could,not,even,go,to,work.,?,?,?,?,?,?,?,?,?,?,?,?,?,?,?,?,?,?
Spanish,312,46,m,Past_Mismatch,m,21,Did Sandra think about quitting her job?,0,0,463,220,219,433,347,239,475,291,1160,3618,329,395,379,370,0,0,0,0,0,0,0,0,0,0,0,0,0,0,0,0,0,0,0,Tense,?,?,For,the,last,"month,",Sandra,felt,unhappy,at,work.,She,even,thought,about,leaving.,?,?,?,?,?,?,?,?,?,?,?,?,?,?,?,?,?,?,?
Spanish,315,16,m,Past_Match,m,11,Did Tom feel very unwell?,0,0,0,469,655,861,297,325,408,678,520,399,276,494,311,455,281,0,0,0,0,0,0,0,0,0,0,0,0,0,0,0,0,0,0,Tense,?,?,?,Three,days,"ago,",Tom,felt,very,unwell.,He,could,not,even,go,to,work.,?,?,?,?,?,?,?,?,?,?,?,?,?,?,?,?,?,?
Spanish,316,55,m,Past_Mismatch,m,21,Did Sandra think about quitting her job?,0,0,231,264,242,227,252,247,361,225,235,313,211,246,196,274,0,0,0,0,0,0,0,0,0,0,0,0,0,0,0,0,0,0,0,Tense,?,?,For,the,last,"month,",Sandra,felt,unhappy,at,work.,She,even,thought,about,leaving.,?,?,?,?,?,?,?,?,?,?,?,?,?,?,?,?,?,?,?
Spanish,319,3,m,Past_Match,m,11,Did Tom feel very unwell?,0,0,0,576,1121,371,1293,345,299,374,591,422,394,368,366,484,2551,0,0,0,0,0,0,0,0,0,0,0,0,0,0,0,0,0,0,Tense,?,?,?,Three,days,"ago,",Tom,felt,very,unwell.,He,could,not,even,go,to,work.,?,?,?,?,?,?,?,?,?,?,?,?,?,?,?,?,?,?
Spanish,320,22,m,Past_Mismatch,m,21,Did Sandra think about quitting her job?,0,0,188,133,148,140,122,182,151,171,160,170,150,115,153,177,0,0,0,0,0,0,0,0,0,0,0,0,0,0,0,0,0,0,0,Tense,?,?,For,the,last,"month,",Sandra,felt,unhappy,at,work.,She,even,thought,about,leaving.,?,?,?,?,?,?,?,?,?,?,?,?,?,?,?,?,?,?,?
Spanish,321,7,m,Past_Match,m,21,Did Sandra think about quitting her job?,0,0,0,0,788,744,799,776,666,548,1056,1794,530,552,487,995,0,0,0,0,0,0,0,0,0,0,0,0,0,0,0,0,0,0,0,Tense,?,?,?,?,Last,"month,",Sandra,felt,unhappy,at,work.,She,even,thought,about,leaving.,?,?,?,?,?,?,?,?,?,?,?,?,?,?,?,?,?,?,?
Spanish,323,1,m,Past_Match,m,11,Did Tom feel very unwell?,0,0,0,1119,1176,1000,895,850,1036,1064,2029,581,810,610,1085,473,733,0,0,0,0,0,0,0,0,0,0,0,0,0,0,0,0,0,0,Tense,?,?,?,Three,days,"ago,",Tom,felt,very,unwell.,He,could,not,even,go,to,work.,?,?,?,?,?,?,?,?,?,?,?,?,?,?,?,?,?,?
Spanish,324,25,m,Past_Mismatch,m,21,Did Sandra think about quitting her job?,0,0,301,666,171,143,701,463,537,436,304,897,371,217,737,401,0,0,0,0,0,0,0,0,0,0,0,0,0,0,0,0,0,0,0,Tense,?,?,For,the,last,"month,",Sandra,felt,unhappy,at,work.,She,even,thought,about,leaving.,?,?,?,?,?,?,?,?,?,?,?,?,?,?,?,?,?,?,?
Spanish,325,54,m,Past_Match,m,21,Did Sandra think about quitting her job?,0,0,0,0,486,147,132,160,148,122,153,131,146,147,113,143,0,0,0,0,0,0,0,0,0,0,0,0,0,0,0,0,0,0,0,Tense,?,?,?,?,Last,"month,",Sandra,felt,unhappy,at,work.,She,even,thought,about,leaving.,?,?,?,?,?,?,?,?,?,?,?,?,?,?,?,?,?,?,?
Spanish,326,54,m,Past_Mismatch,m,11,Did Tom feel very unwell?,0,223,187,167,431,210,168,964,381,1376,307,266,448,277,250,219,245,0,0,0,0,0,0,0,0,0,0,0,0,0,0,0,0,0,0,Tense,?,For,the,last,three,"days,",Tom,felt,very,unwell.,He,could,not,even,go,to,work.,?,?,?,?,?,?,?,?,?,?,?,?,?,?,?,?,?,?
Spanish,327,19,m,Past_Match,m,11,Did Tom feel very unwell?,0,0,0,378,260,514,355,322,502,787,496,444,278,353,438,316,351,0,0,0,0,0,0,0,0,0,0,0,0,0,0,0,0,0,0,Tense,?,?,?,Three,days,"ago,",Tom,felt,very,unwell.,He,could,not,even,go,to,work.,?,?,?,?,?,?,?,?,?,?,?,?,?,?,?,?,?,?
Spanish,328,22,m,Past_Mismatch,m,21,Did Sandra think about quitting her job?,0,0,154,166,144,168,150,148,167,172,167,167,178,176,165,163,0,0,0,0,0,0,0,0,0,0,0,0,0,0,0,0,0,0,0,Tense,?,?,For,the,last,"month,",Sandra,felt,unhappy,at,work.,She,even,thought,about,leaving.,?,?,?,?,?,?,?,?,?,?,?,?,?,?,?,?,?,?,?
Spanish,301,28,m,Perfect_Mismatch,m,16,Was Barbara’s credit card bill enormous?,0,0,0,0,271,308,283,363,387,286,296,287,350,298,336,307,315,368,0,0,0,0,0,0,0,0,0,0,0,0,0,0,0,0,0,Tense,?,?,?,?,At,"Christmas,",Barbara,has,spent,too,much,money.,Her,credit,card,bill,was,enormous.,?,?,?,?,?,?,?,?,?,?,?,?,?,?,?,?,?
Spanish,301,37,x,Perfect_Mismatch,x,8,Has William met his mother after work?,0,0,0,308,271,280,294,327,385,254,280,287,288,305,276,318,283,338,261,291,274,332,276,392,0,0,0,0,0,0,0,0,0,0,0,Tense,?,?,?,A,year,"ago,",William,has,met,his,best,friend,after,work,every,Friday.,Now,he,spends,every,night,with,his,girlfriend.,?,?,?,?,?,?,?,?,?,?,?
Spanish,301,55,m,Perfect_Mismatch,m,20,Did Jerry want to be a millionaire?,0,0,274,257,248,474,291,327,1031,347,291,413,540,310,297,673,343,232,302,0,0,0,0,0,0,0,0,0,0,0,0,0,0,0,0,Tense,?,?,When,he,finished,"university,",Jerry,has,thought,about,starting,a,business.,He,wanted,to,be,a,millionaire.,?,?,?,?,?,?,?,?,?,?,?,?,?,?,?,?
Spanish,301,59,x,Perfect_Mismatch,x,4,Has Sam thought Jenny was ugly?,0,0,256,230,252,331,336,256,349,288,253,284,269,287,337,211,236,274,240,259,225,285,0,0,0,0,0,0,0,0,0,0,0,0,0,Tense,?,?,When,he,saw,"her,",Sam,has,thought,Jenny,was,beautiful.,"However,",he,is,far,too,nervous,to,speak,to,her.,?,?,?,?,?,?,?,?,?,?,?,?,?
Spanish,301,64,x,Perfect_Mismatch,x,12,Has Kate studied Russian in her spare time?,0,0,0,0,420,281,218,219,242,268,258,229,240,308,215,277,240,262,257,217,0,0,0,0,0,0,0,0,0,0,0,0,0,0,0,Tense,?,?,?,?,Last,"year,",Kate,has,studied,French,in,her,spare,time.,She,now,wants,to,learn,German.,?,?,?,?,?,?,?,?,?,?,?,?,?,?,?
Spanish,301,83,m,Perfect_Mismatch,m,24,Does Michael want to become a professional?,0,0,0,0,468,306,322,318,335,275,499,441,476,219,297,318,274,254,283,0,0,0,0,0,0,0,0,0,0,0,0,0,0,0,0,Tense,?,?,?,?,Last,"year,",Michael,has,learnt,to,play,poker.,He,now,wants,to,become,a,professional.,?,?,?,?,?,?,?,?,?,?,?,?,?,?,?,?
Spanish,301,4,m,Perfect_Match,m,15,Did Bert want to enter into a gardening competition?,0,0,0,0,246,306,312,352,372,327,315,330,272,238,276,261,249,292,302,328,291,345,0,0,0,0,0,0,0,0,0,0,0,0,0,Tense,?,?,?,?,Since,"spring,",Bert,has,planted,many,roses,in,the,garden.,He,wanted,to,enter,into,a,gardening,competition.,?,?,?,?,?,?,?,?,?,?,?,?,?
Spanish,301,9,m,Perfect_Match,m,11,Has Tom felt very unwell?,0,317,317,385,392,81,678,361,333,432,388,321,443,430,396,339,316,310,0,0,0,0,0,0,0,0,0,0,0,0,0,0,0,0,0,Tense,?,For,the,last,three,"days,",Tom,has,felt,very,unwell.,He,could,not,even,go,to,work.,?,?,?,?,?,?,?,?,?,?,?,?,?,?,?,?,?
Spanish,301,13,m,Perfect_Match,m,7,Has Mark seen the film three times?,0,0,0,330,310,574,344,238,291,301,377,300,326,361,322,297,330,314,0,0,0,0,0,0,0,0,0,0,0,0,0,0,0,0,0,Tense,?,?,?,Since,last,"Friday,",Mark,has,seen,the,same,film,three,times.,He,really,loved,it.,?,?,?,?,?,?,?,?,?,?,?,?,?,?,?,?,?
Spanish,301,33,x,Perfect_Match,x,23,Does Ben pay the same amount for his insurance? ,0,0,0,0,785,338,271,309,300,302,323,296,300,300,288,317,286,311,299,285,278,0,0,0,0,0,0,0,0,0,0,0,0,0,0,Tense,?,?,?,?,Since,"February,",Ben,has,crashed,his,car,four,times.,He,now,pays,a,lot,for,his,insurance.,?,?,?,?,?,?,?,?,?,?,?,?,?,?
Spanish,301,56,m,Perfect_Match,x,3,Has the aunt visited our house?,297,358,332,436,567,192,288,293,237,279,271,279,265,329,340,288,0,0,0,0,0,0,0,0,0,0,0,0,0,0,0,0,0,0,0,Tense,Since,he,moved,"in,",my,old,neighbor,has,visited,our,house.,He,brought,us,a,cake.,?,?,?,?,?,?,?,?,?,?,?,?,?,?,?,?,?,?,?
Spanish,301,72,x,Perfect_Match,x,19,Does Alan like baking bread now?,0,248,705,284,369,287,308,234,316,225,278,227,241,275,263,257,249,264,260,0,0,0,0,0,0,0,0,0,0,0,0,0,0,0,0,Tense,?,Since,he,first,started,"cooking,",Alan,has,enjoyed,making,pasta,most,of,all.,He,now,likes,making,desserts.,?,?,?,?,?,?,?,?,?,?,?,?,?,?,?,?
Spanish,302,2,x,Perfect_Mismatch,x,9,Has Matt been a successful musician?,0,0,345,353,340,364,382,292,309,286,451,504,400,253,375,525,391,320,463,0,0,0,0,0,0,0,0,0,0,0,0,0,0,0,0,Tense,?,?,Once,many,years,"ago,",Matt,has,been,a,successful,businessman.,He,now,feels,unsatisfied,with,his,life.,?,?,?,?,?,?,?,?,?,?,?,?,?,?,?,?
Spanish,302,3,x,Perfect_Mismatch,x,5,Has James gone running every day?,0,0,0,0,312,500,321,331,606,338,330,324,539,318,333,404,329,342,318,0,0,0,0,0,0,0,0,0,0,0,0,0,0,0,0,Tense,?,?,?,?,Last,"week,",James,has,gone,swimming,every,day.,Now,he,is,getting,bored,of,it.,?,?,?,?,?,?,?,?,?,?,?,?,?,?,?,?
Spanish,302,10,m,Perfect_Mismatch,m,21,Did Sandra think about quitting her job?,0,0,0,0,239,488,338,359,185,200,325,210,614,50,126,980,440,0,0,0,0,0,0,0,0,0,0,0,0,0,0,0,0,0,0,Tense,?,?,?,?,Last,"month,",Sandra,has,felt,unhappy,at,work.,She,even,thought,about,leaving.,?,?,?,?,?,?,?,?,?,?,?,?,?,?,?,?,?,?
Spanish,302,26,x,Perfect_Mismatch,x,13,Is Emma’s work still exciting?,208,194,154,195,337,245,400,280,262,340,265,329,316,536,125,173,155,178,354,0,0,0,0,0,0,0,0,0,0,0,0,0,0,0,0,Tense,When,she,first,started,her,"job,",Emma,has,loved,the,work,very,much.,It,is,not,very,exciting,now.,?,?,?,?,?,?,?,?,?,?,?,?,?,?,?,?
Spanish,302,79,m,Perfect_Mismatch,m,1,Has Joe liked Mary’s old school-friends?,0,0,0,0,320,948,285,131,176,174,311,227,701,256,257,202,335,193,253,0,0,0,0,0,0,0,0,0,0,0,0,0,0,0,0,Tense,?,?,?,?,At,"first,",Joe,has,liked,Mary’s,old,school-friends.,He,does,not,think,they,are,boring.,?,?,?,?,?,?,?,?,?,?,?,?,?,?,?,?
Spanish,302,81,x,Perfect_Mismatch,x,17,Does Paul want to go out with only one woman?,0,0,0,273,476,214,317,207,235,183,404,251,562,196,164,283,162,166,158,172,371,0,0,0,0,0,0,0,0,0,0,0,0,0,0,Tense,?,?,?,On,his,"birthday,",Paul,has,met,two,lovely,women.,He,wants,to,go,out,with,both,of,them.,?,?,?,?,?,?,?,?,?,?,?,?,?,?
Spanish,302,7,x,Perfect_Match,x,12,Has Kate studied Russian in her spare time?,0,0,0,289,265,327,386,354,435,279,579,301,274,382,456,191,297,416,333,688,0,0,0,0,0,0,0,0,0,0,0,0,0,0,0,Tense,?,?,?,Since,last,"year,",Kate,has,studied,French,in,her,spare,time.,She,now,wants,to,learn,German.,?,?,?,?,?,?,?,?,?,?,?,?,?,?,?
Spanish,302,19,x,Perfect_Match,x,8,Has William met his mother after work?,0,0,185,162,336,1578,149,159,164,229,176,389,321,191,294,285,466,129,160,256,312,325,288,377,0,0,0,0,0,0,0,0,0,0,0,Tense,?,?,For,a,year,"now,",William,has,met,his,best,friend,after,work,every,Friday.,Now,he,spends,every,night,with,his,girlfriend.,?,?,?,?,?,?,?,?,?,?,?
Spanish,302,27,m,Perfect_Match,m,24,Does Michael want to become a professional?,0,0,0,104,284,201,312,314,258,251,207,131,674,126,173,268,254,268,629,0,0,0,0,0,0,0,0,0,0,0,0,0,0,0,0,Tense,?,?,?,Since,the,"summer,",Michael,has,learnt,to,play,poker.,He,now,wants,to,become,a,professional.,?,?,?,?,?,?,?,?,?,?,?,?,?,?,?,?
Spanish,302,46,m,Perfect_Match,m,20,Did Jerry want to be a millionaire?,0,0,132,258,155,128,253,292,511,354,357,312,411,521,408,133,162,289,470,0,0,0,0,0,0,0,0,0,0,0,0,0,0,0,0,Tense,?,?,Since,he,finished,"university,",Jerry,has,thought,about,starting,a,business.,He,wanted,to,be,a,millionaire.,?,?,?,?,?,?,?,?,?,?,?,?,?,?,?,?
Spanish,302,56,m,Perfect_Match,m,16,Was Barbara’s credit card bill enormous?,0,0,0,0,249,136,360,180,139,129,184,180,419,141,162,155,330,383,0,0,0,0,0,0,0,0,0,0,0,0,0,0,0,0,0,Tense,?,?,?,?,Since,"Christmas,",Barbara,has,spent,too,much,money.,Her,credit,card,bill,was,enormous.,?,?,?,?,?,?,?,?,?,?,?,?,?,?,?,?,?
Spanish,302,72,x,Perfect_Match,x,4,Has Sam thought Jenny was ugly?,0,286,126,354,314,331,370,208,187,192,335,547,378,125,159,175,349,339,320,302,301,299,0,0,0,0,0,0,0,0,0,0,0,0,0,Tense,?,Since,he,first,saw,"her,",Sam,has,thought,Jenny,was,beautiful.,"However,",he,is,far,too,nervous,to,speak,to,her.,?,?,?,?,?,?,?,?,?,?,?,?,?
Spanish,303,23,x,Perfect_Mismatch,x,22,Does Christine still like Gary?,0,0,0,0,561,293,271,282,302,245,262,262,885,291,259,407,648,0,0,0,0,0,0,0,0,0,0,0,0,0,0,0,0,0,0,Tense,?,?,?,?,At,"first,",Christine,has,wanted,to,marry,Gary.,Now,she,finds,him,unpleasant.,?,?,?,?,?,?,?,?,?,?,?,?,?,?,?,?,?,?
Spanish,303,25,m,Perfect_Mismatch,m,6,Has Brenda wanted to become an actress?,235,239,263,247,259,289,444,304,275,276,745,236,402,318,228,502,508,316,611,0,0,0,0,0,0,0,0,0,0,0,0,0,0,0,0,Tense,When,she,was,ten,years,"old,",Brenda,has,wanted,to,be,an,actress.,She,now,works,in,a,hospital.,?,?,?,?,?,?,?,?,?,?,?,?,?,?,?,?
Spanish,303,41,m,Perfect_Mismatch,m,14,Did the band sell a million records?,0,0,0,0,242,267,235,286,541,284,512,638,549,276,679,252,0,0,0,0,0,0,0,0,0,0,0,0,0,0,0,0,0,0,0,Tense,?,?,?,?,"Initially,",the,band,has,been,very,successful.,They,sold,a,million,records.,?,?,?,?,?,?,?,?,?,?,?,?,?,?,?,?,?,?,?
Spanish,303,45,x,Perfect_Mismatch,x,18,Is the army a safe profession?,0,0,0,331,290,268,278,374,680,290,388,446,445,252,231,532,222,226,0,0,0,0,0,0,0,0,0,0,0,0,0,0,0,0,0,Tense,?,?,?,Many,years,"ago,",Judith,has,thought,about,joining,the,army.,It,is,a,dangerous,profession.,?,?,?,?,?,?,?,?,?,?,?,?,?,?,?,?,?
Spanish,303,55,x,Perfect_Mismatch,m,2,Has the cat eaten only fish?,0,0,0,0,338,320,582,332,472,239,279,1081,298,294,270,273,0,0,0,0,0,0,0,0,0,0,0,0,0,0,0,0,0,0,0,Tense,?,?,?,?,"Initially,",the,cat,has,eaten,only,fish.,She,now,also,eats,meat.,?,?,?,?,?,?,?,?,?,?,?,?,?,?,?,?,?,?,?
Spanish,303,66,m,Perfect_Mismatch,m,10,Has Jenny wanted to escape from her life?,0,196,388,222,197,233,204,228,422,276,280,327,272,307,446,290,266,359,329,0,0,0,0,0,0,0,0,0,0,0,0,0,0,0,0,Tense,?,Before,her,baby,was,"born,",Jenny,has,wanted,to,escape,from,her,life.,She,was,very,stressed,out.,?,?,?,?,?,?,?,?,?,?,?,?,?,?,?,?
Spanish,303,21,m,Perfect_Match,m,21,Did Sandra think about quitting her job?,0,0,281,278,421,532,275,248,269,283,318,268,423,219,250,297,335,0,0,0,0,0,0,0,0,0,0,0,0,0,0,0,0,0,0,Tense,?,?,For,the,last,"month,",Sandra,has,felt,unhappy,at,work.,She,even,thought,about,leaving.,?,?,?,?,?,?,?,?,?,?,?,?,?,?,?,?,?,?
Spanish,303,30,m,Perfect_Match,x,5,Has James gone running every day?,0,0,0,327,318,271,414,818,635,432,557,267,315,289,231,261,302,309,297,0,0,0,0,0,0,0,0,0,0,0,0,0,0,0,0,Tense,?,?,?,Since,the,"summer,",James,has,gone,swimming,every,day.,Now,he,is,getting,bored,of,it.,?,?,?,?,?,?,?,?,?,?,?,?,?,?,?,?
Spanish,303,39,m,Perfect_Match,m,1,Has Joe liked Mary’s old school-friends?,0,0,162,272,224,421,639,314,249,330,547,627,377,279,232,268,358,292,269,0,0,0,0,0,0,0,0,0,0,0,0,0,0,0,0,Tense,?,?,Since,he,met,"them,",Joe,has,liked,Mary’s,old,school-friends.,He,does,not,think,they,are,boring.,?,?,?,?,?,?,?,?,?,?,?,?,?,?,?,?
Spanish,303,57,m,Perfect_Match,x,9,Has Matt been a successful musician?,0,0,258,204,201,215,263,201,246,213,233,277,229,287,266,316,361,210,272,0,0,0,0,0,0,0,0,0,0,0,0,0,0,0,0,Tense,?,?,Since,he,was,"twenty,",Matt,has,been,a,successful,businessman.,He,now,feels,unsatisfied,with,his,life.,?,?,?,?,?,?,?,?,?,?,?,?,?,?,?,?
Spanish,303,77,x,Perfect_Match,x,17,Does Paul want to go out with only one woman?,0,0,0,339,394,782,256,695,299,327,370,277,367,301,330,194,273,321,337,409,276,0,0,0,0,0,0,0,0,0,0,0,0,0,0,Tense,?,?,?,Since,his,"birthday,",Paul,has,met,two,lovely,women.,He,wants,to,go,out,with,both,of,them.,?,?,?,?,?,?,?,?,?,?,?,?,?,?
Spanish,303,84,x,Perfect_Match,x,13,Is Emma’s work still exciting?,208,230,208,473,246,400,293,468,254,261,257,241,354,302,349,217,347,371,283,0,0,0,0,0,0,0,0,0,0,0,0,0,0,0,0,Tense,Since,she,first,started,her,"job,",Emma,has,loved,the,work,very,much.,It,is,not,very,exciting,now.,?,?,?,?,?,?,?,?,?,?,?,?,?,?,?,?
Spanish,304,26,x,Perfect_Mismatch,x,3,Has the aunt visited our house?,0,0,0,588,369,460,569,470,388,428,669,573,464,379,454,438,0,0,0,0,0,0,0,0,0,0,0,0,0,0,0,0,0,0,0,Tense,?,?,?,"Yesterday,",my,old,neighbor,has,visited,our,house.,He,brought,us,a,cake.,?,?,?,?,?,?,?,?,?,?,?,?,?,?,?,?,?,?,?
Spanish,304,40,x,Perfect_Mismatch,x,23,Does Ben pay the same amount for his insurance? ,0,0,0,0,325,404,346,341,334,519,375,333,387,459,363,333,357,380,340,329,500,0,0,0,0,0,0,0,0,0,0,0,0,0,0,Tense,?,?,?,?,In,"February,",Ben,has,crashed,his,car,four,times.,He,now,pays,a,lot,for,his,insurance.,?,?,?,?,?,?,?,?,?,?,?,?,?,?
Spanish,304,53,x,Perfect_Mismatch,x,19,Does Alan like baking bread now?,0,348,263,282,248,313,280,327,249,251,285,327,338,290,393,535,584,400,721,0,0,0,0,0,0,0,0,0,0,0,0,0,0,0,0,Tense,?,When,he,first,started,"cooking,",Alan,has,enjoyed,making,pasta,most,of,all.,He,now,likes,making,desserts.,?,?,?,?,?,?,?,?,?,?,?,?,?,?,?,?
Spanish,304,62,m,Perfect_Mismatch,m,7,Has Mark seen the film three times?,0,0,0,0,407,194,355,222,284,433,294,307,290,418,353,457,347,432,0,0,0,0,0,0,0,0,0,0,0,0,0,0,0,0,0,Tense,?,?,?,?,Last,"Friday,",Mark,has,seen,the,same,film,three,times.,He,really,loved,it.,?,?,?,?,?,?,?,?,?,?,?,?,?,?,?,?,?
Spanish,304,64,m,Perfect_Mismatch,m,11,Has Tom felt very unwell?,0,0,0,308,226,214,298,303,322,259,323,488,362,269,289,378,312,374,0,0,0,0,0,0,0,0,0,0,0,0,0,0,0,0,0,Tense,?,?,?,Three,days,"ago,",Tom,has,felt,very,unwell.,He,could,not,even,go,to,work.,?,?,?,?,?,?,?,?,?,?,?,?,?,?,?,?,?
Spanish,304,77,m,Perfect_Mismatch,m,15,Did Bert want to enter into a gardening competition?,0,0,0,0,347,264,268,275,286,268,216,382,232,254,373,218,264,239,338,590,529,360,0,0,0,0,0,0,0,0,0,0,0,0,0,Tense,?,?,?,?,Last,"spring,",Bert,has,planted,many,roses,in,the,garden.,He,wanted,to,enter,into,a,gardening,competition.,?,?,?,?,?,?,?,?,?,?,?,?,?
Spanish,304,5,m,Perfect_Match,m,10,Has Jenny wanted to escape from her life?,0,349,506,640,595,1283,502,377,414,352,403,333,317,367,354,353,357,476,355,0,0,0,0,0,0,0,0,0,0,0,0,0,0,0,0,Tense,?,Since,her,baby,was,"born,",Jenny,has,wanted,to,escape,from,her,life.,She,was,very,stressed,out.,?,?,?,?,?,?,?,?,?,?,?,?,?,?,?,?
Spanish,304,12,x,Perfect_Match,x,18,Is the army a safe profession?,0,0,398,345,353,335,470,770,927,416,515,315,317,565,387,406,429,363,0,0,0,0,0,0,0,0,0,0,0,0,0,0,0,0,0,Tense,?,?,For,many,years,"now,",Judith,has,thought,about,joining,the,army.,It,is,a,dangerous,profession.,?,?,?,?,?,?,?,?,?,?,?,?,?,?,?,?,?
Spanish,304,49,m,Perfect_Match,m,6,Has Brenda wanted to become an actress?,313,388,349,336,294,254,297,280,285,460,362,358,394,290,269,322,318,307,328,0,0,0,0,0,0,0,0,0,0,0,0,0,0,0,0,Tense,Since,she,was,ten,years,"old,",Brenda,has,wanted,to,be,an,actress.,She,now,works,in,a,hospital.,?,?,?,?,?,?,?,?,?,?,?,?,?,?,?,?
Spanish,304,52,m,Perfect_Match,m,14,Did the band sell a million records?,0,0,414,344,253,448,360,346,277,277,420,380,382,331,340,320,0,0,0,0,0,0,0,0,0,0,0,0,0,0,0,0,0,0,0,Tense,?,?,Since,the,"beginning,",the,band,has,been,very,successful.,They,sold,a,million,records.,?,?,?,?,?,?,?,?,?,?,?,?,?,?,?,?,?,?,?
Spanish,304,58,x,Perfect_Match,x,22,Does Christine still like Gary?,0,0,0,277,210,285,576,407,298,421,357,687,1120,378,325,795,637,0,0,0,0,0,0,0,0,0,0,0,0,0,0,0,0,0,0,Tense,?,?,?,For,months,"now,",Christine,has,wanted,to,marry,Gary.,Now,she,finds,him,unpleasant.,?,?,?,?,?,?,?,?,?,?,?,?,?,?,?,?,?,?
Spanish,304,69,m,Perfect_Match,m,2,Has the cat eaten only fish?,0,0,577,253,258,348,281,697,321,245,241,374,292,331,538,1045,0,0,0,0,0,0,0,0,0,0,0,0,0,0,0,0,0,0,0,Tense,?,?,Since,last,"week,",the,cat,has,eaten,only,fish.,She,now,also,eats,meat.,?,?,?,?,?,?,?,?,?,?,?,?,?,?,?,?,?,?,?
Spanish,306,36,x,Perfect_Mismatch,x,5,Has James gone running every day?,0,0,0,0,371,294,301,289,298,565,355,315,374,304,378,376,354,511,360,0,0,0,0,0,0,0,0,0,0,0,0,0,0,0,0,Tense,?,?,?,?,Last,"week,",James,has,gone,swimming,every,day.,Now,he,is,getting,bored,of,it.,?,?,?,?,?,?,?,?,?,?,?,?,?,?,?,?
Spanish,306,45,x,Perfect_Mismatch,x,17,Does Paul want to go out with only one woman?,0,0,0,459,325,1025,754,649,503,386,524,413,470,456,388,419,366,378,422,482,501,0,0,0,0,0,0,0,0,0,0,0,0,0,0,Tense,?,?,?,On,his,"birthday,",Paul,has,met,two,lovely,women.,He,wants,to,go,out,with,both,of,them.,?,?,?,?,?,?,?,?,?,?,?,?,?,?
Spanish,306,57,x,Perfect_Mismatch,x,9,Has Matt been a successful musician?,0,0,365,340,333,358,358,493,413,335,679,1058,722,360,358,589,393,384,347,0,0,0,0,0,0,0,0,0,0,0,0,0,0,0,0,Tense,?,?,Once,many,years,"ago,",Matt,has,been,a,successful,businessman.,He,now,feels,unsatisfied,with,his,life.,?,?,?,?,?,?,?,?,?,?,?,?,?,?,?,?
Spanish,306,62,m,Perfect_Mismatch,m,21,Did Sandra think about quitting her job?,0,0,0,0,408,414,362,318,420,507,361,492,340,518,454,540,462,0,0,0,0,0,0,0,0,0,0,0,0,0,0,0,0,0,0,Tense,?,?,?,?,Last,"month,",Sandra,has,felt,unhappy,at,work.,She,even,thought,about,leaving.,?,?,?,?,?,?,?,?,?,?,?,?,?,?,?,?,?,?
Spanish,306,67,x,Perfect_Mismatch,x,13,Is Emma’s work still exciting?,358,276,291,335,298,947,400,345,429,359,334,313,564,374,289,249,294,388,380,0,0,0,0,0,0,0,0,0,0,0,0,0,0,0,0,Tense,When,she,first,started,her,"job,",Emma,has,loved,the,work,very,much.,It,is,not,very,exciting,now.,?,?,?,?,?,?,?,?,?,?,?,?,?,?,?,?
Spanish,306,69,m,Perfect_Mismatch,m,1,Has Joe liked Mary’s old school-friends?,0,0,0,0,418,301,416,383,337,337,336,1103,488,489,614,404,352,322,668,0,0,0,0,0,0,0,0,0,0,0,0,0,0,0,0,Tense,?,?,?,?,At,"first,",Joe,has,liked,Mary’s,old,school-friends.,He,does,not,think,they,are,boring.,?,?,?,?,?,?,?,?,?,?,?,?,?,?,?,?
Spanish,306,1,x,Perfect_Match,x,4,Has Sam thought Jenny was ugly?,0,431,362,375,318,554,505,473,585,956,420,598,783,440,370,503,450,628,401,355,280,313,0,0,0,0,0,0,0,0,0,0,0,0,0,Tense,?,Since,he,first,saw,"her,",Sam,has,thought,Jenny,was,beautiful.,"However,",he,is,far,too,nervous,to,speak,to,her.,?,?,?,?,?,?,?,?,?,?,?,?,?
Spanish,306,5,m,Perfect_Match,m,20,Did Jerry want to be a millionaire?,0,0,819,501,684,686,787,517,646,671,738,498,825,460,583,810,530,497,1225,0,0,0,0,0,0,0,0,0,0,0,0,0,0,0,0,Tense,?,?,Since,he,finished,"university,",Jerry,has,thought,about,starting,a,business.,He,wanted,to,be,a,millionaire.,?,?,?,?,?,?,?,?,?,?,?,?,?,?,?,?
Spanish,306,11,x,Perfect_Match,x,12,Has Kate studied Russian in her spare time?,0,0,0,486,739,427,608,438,554,465,450,360,313,762,508,411,451,376,421,407,0,0,0,0,0,0,0,0,0,0,0,0,0,0,0,Tense,?,?,?,Since,last,"year,",Kate,has,studied,French,in,her,spare,time.,She,now,wants,to,learn,German.,?,?,?,?,?,?,?,?,?,?,?,?,?,?,?
Spanish,306,31,m,Perfect_Match,m,16,Was Barbara’s credit card bill enormous?,0,0,0,0,486,853,812,552,635,416,482,686,456,407,390,378,407,615,0,0,0,0,0,0,0,0,0,0,0,0,0,0,0,0,0,Tense,?,?,?,?,Since,"Christmas,",Barbara,has,spent,too,much,money.,Her,credit,card,bill,was,enormous.,?,?,?,?,?,?,?,?,?,?,?,?,?,?,?,?,?
Spanish,306,64,m,Perfect_Match,m,24,Does Michael want to become a professional?,0,0,0,411,271,253,271,249,541,385,342,277,577,309,394,373,341,391,672,0,0,0,0,0,0,0,0,0,0,0,0,0,0,0,0,Tense,?,?,?,Since,the,"summer,",Michael,has,learnt,to,play,poker.,He,now,wants,to,become,a,professional.,?,?,?,?,?,?,?,?,?,?,?,?,?,?,?,?
Spanish,306,68,x,Perfect_Match,x,8,Has William met his mother after work?,0,0,371,447,349,364,549,306,294,293,295,367,298,304,384,277,364,305,312,298,323,1064,338,572,0,0,0,0,0,0,0,0,0,0,0,Tense,?,?,For,a,year,"now,",William,has,met,his,best,friend,after,work,every,Friday.,Now,he,spends,every,night,with,his,girlfriend.,?,?,?,?,?,?,?,?,?,?,?
Spanish,307,7,x,Perfect_Mismatch,x,18,Is the army a safe profession?,0,0,0,498,454,400,358,437,475,454,415,327,453,389,452,355,404,398,0,0,0,0,0,0,0,0,0,0,0,0,0,0,0,0,0,Tense,?,?,?,Many,years,"ago,",Judith,has,thought,about,joining,the,army.,It,is,a,dangerous,profession.,?,?,?,?,?,?,?,?,?,?,?,?,?,?,?,?,?
Spanish,307,11,m,Perfect_Mismatch,m,14,Did the band sell a million records?,0,0,0,0,2190,430,301,347,327,343,361,334,336,342,330,341,0,0,0,0,0,0,0,0,0,0,0,0,0,0,0,0,0,0,0,Tense,?,?,?,?,"Initially,",the,band,has,been,very,successful.,They,sold,a,million,records.,?,?,?,?,?,?,?,?,?,?,?,?,?,?,?,?,?,?,?
Spanish,307,34,x,Perfect_Mismatch,m,2,Has the cat eaten only fish?,0,0,0,0,422,422,361,301,295,345,415,363,361,343,410,532,0,0,0,0,0,0,0,0,0,0,0,0,0,0,0,0,0,0,0,Tense,?,?,?,?,"Initially,",the,cat,has,eaten,only,fish.,She,now,also,eats,meat.,?,?,?,?,?,?,?,?,?,?,?,?,?,?,?,?,?,?,?
Spanish,307,54,m,Perfect_Mismatch,m,10,Has Jenny wanted to escape from her life?,0,361,322,341,327,362,335,320,330,344,354,358,421,602,830,322,330,637,394,0,0,0,0,0,0,0,0,0,0,0,0,0,0,0,0,Tense,?,Before,her,baby,was,"born,",Jenny,has,wanted,to,escape,from,her,life.,She,was,very,stressed,out.,?,?,?,?,?,?,?,?,?,?,?,?,?,?,?,?
Spanish,307,78,m,Perfect_Mismatch,m,6,Has Brenda wanted to become an actress?,339,309,279,305,327,302,332,354,388,427,341,341,569,354,389,340,462,420,316,0,0,0,0,0,0,0,0,0,0,0,0,0,0,0,0,Tense,When,she,was,ten,years,"old,",Brenda,has,wanted,to,be,an,actress.,She,now,works,in,a,hospital.,?,?,?,?,?,?,?,?,?,?,?,?,?,?,?,?
Spanish,307,84,x,Perfect_Mismatch,x,22,Does Christine still like Gary?,0,0,0,0,307,428,443,345,359,462,647,599,366,363,300,457,538,0,0,0,0,0,0,0,0,0,0,0,0,0,0,0,0,0,0,Tense,?,?,?,?,At,"first,",Christine,has,wanted,to,marry,Gary.,Now,she,finds,him,unpleasant.,?,?,?,?,?,?,?,?,?,?,?,?,?,?,?,?,?,?
Spanish,307,2,x,Perfect_Match,x,5,Has James gone running every day?,0,0,0,400,350,512,369,394,385,411,416,625,448,327,347,421,456,398,344,0,0,0,0,0,0,0,0,0,0,0,0,0,0,0,0,Tense,?,?,?,Since,the,"summer,",James,has,gone,swimming,every,day.,Now,he,is,getting,bored,of,it.,?,?,?,?,?,?,?,?,?,?,?,?,?,?,?,?
Spanish,307,5,x,Perfect_Match,x,9,Has Matt been a successful musician?,0,0,694,412,886,492,495,441,468,468,442,545,365,434,401,473,366,374,426,0,0,0,0,0,0,0,0,0,0,0,0,0,0,0,0,Tense,?,?,Since,he,was,"twenty,",Matt,has,been,a,successful,businessman.,He,now,feels,unsatisfied,with,his,life.,?,?,?,?,?,?,?,?,?,?,?,?,?,?,?,?
Spanish,307,14,m,Perfect_Match,m,1,Has Joe liked Mary’s old school-friends?,0,0,653,415,390,316,382,387,351,372,409,593,361,400,345,587,320,322,581,0,0,0,0,0,0,0,0,0,0,0,0,0,0,0,0,Tense,?,?,Since,he,met,"them,",Joe,has,liked,Mary’s,old,school-friends.,He,does,not,think,they,are,boring.,?,?,?,?,?,?,?,?,?,?,?,?,?,?,?,?
Spanish,307,33,x,Perfect_Match,x,13,Is Emma’s work still exciting?,307,326,908,486,299,343,337,388,431,416,379,351,563,327,322,351,370,373,345,0,0,0,0,0,0,0,0,0,0,0,0,0,0,0,0,Tense,Since,she,first,started,her,"job,",Emma,has,loved,the,work,very,much.,It,is,not,very,exciting,now.,?,?,?,?,?,?,?,?,?,?,?,?,?,?,?,?
Spanish,307,64,x,Perfect_Match,x,17,Does Paul want to go out with only one woman?,0,0,0,371,319,390,347,399,360,339,344,356,374,272,377,360,381,351,401,338,408,0,0,0,0,0,0,0,0,0,0,0,0,0,0,Tense,?,?,?,Since,his,"birthday,",Paul,has,met,two,lovely,women.,He,wants,to,go,out,with,both,of,them.,?,?,?,?,?,?,?,?,?,?,?,?,?,?
Spanish,307,66,m,Perfect_Match,m,21,Did Sandra think about quitting her job?,0,0,215,407,293,343,340,316,330,338,337,340,358,405,333,374,333,0,0,0,0,0,0,0,0,0,0,0,0,0,0,0,0,0,0,Tense,?,?,For,the,last,"month,",Sandra,has,felt,unhappy,at,work.,She,even,thought,about,leaving.,?,?,?,?,?,?,?,?,?,?,?,?,?,?,?,?,?,?
Spanish,308,1,m,Perfect_Mismatch,m,7,Has Mark seen the film three times?,0,0,0,0,372,385,428,361,371,354,372,372,369,397,483,517,392,380,0,0,0,0,0,0,0,0,0,0,0,0,0,0,0,0,0,Tense,?,?,?,?,Last,"Friday,",Mark,has,seen,the,same,film,three,times.,He,really,loved,it.,?,?,?,?,?,?,?,?,?,?,?,?,?,?,?,?,?
Spanish,308,8,m,Perfect_Mismatch,m,11,Has Tom felt very unwell?,0,0,0,284,297,274,312,286,391,342,331,666,383,284,288,383,208,382,0,0,0,0,0,0,0,0,0,0,0,0,0,0,0,0,0,Tense,?,?,?,Three,days,"ago,",Tom,has,felt,very,unwell.,He,could,not,even,go,to,work.,?,?,?,?,?,?,?,?,?,?,?,?,?,?,?,?,?
Spanish,308,11,x,Perfect_Mismatch,x,19,Does Alan like baking bread now?,0,297,287,284,235,412,343,293,258,330,320,271,247,828,483,343,269,321,269,0,0,0,0,0,0,0,0,0,0,0,0,0,0,0,0,Tense,?,When,he,first,started,"cooking,",Alan,has,enjoyed,making,pasta,most,of,all.,He,now,likes,making,desserts.,?,?,?,?,?,?,?,?,?,?,?,?,?,?,?,?
Spanish,308,31,m,Perfect_Mismatch,m,15,Did Bert want to enter into a gardening competition?,0,0,0,0,233,219,207,191,237,243,194,250,185,207,202,234,234,201,250,303,454,278,0,0,0,0,0,0,0,0,0,0,0,0,0,Tense,?,?,?,?,Last,"spring,",Bert,has,planted,many,roses,in,the,garden.,He,wanted,to,enter,into,a,gardening,competition.,?,?,?,?,?,?,?,?,?,?,?,?,?
Spanish,308,40,x,Perfect_Mismatch,x,3,Has the aunt visited our house?,0,0,0,218,252,207,191,222,230,199,207,249,224,834,346,254,0,0,0,0,0,0,0,0,0,0,0,0,0,0,0,0,0,0,0,Tense,?,?,?,"Yesterday,",my,old,neighbor,has,visited,our,house.,He,brought,us,a,cake.,?,?,?,?,?,?,?,?,?,?,?,?,?,?,?,?,?,?,?
Spanish,308,63,x,Perfect_Mismatch,x,23,Does Ben pay the same amount for his insurance? ,0,0,0,0,190,209,203,192,233,364,233,220,181,186,229,224,230,224,366,170,218,0,0,0,0,0,0,0,0,0,0,0,0,0,0,Tense,?,?,?,?,In,"February,",Ben,has,crashed,his,car,four,times.,He,now,pays,a,lot,for,his,insurance.,?,?,?,?,?,?,?,?,?,?,?,?,?,?
Spanish,308,27,m,Perfect_Match,m,10,Has Jenny wanted to escape from her life?,0,233,205,212,261,189,227,300,579,580,308,258,234,222,374,1516,377,766,469,0,0,0,0,0,0,0,0,0,0,0,0,0,0,0,0,Tense,?,Since,her,baby,was,"born,",Jenny,has,wanted,to,escape,from,her,life.,She,was,very,stressed,out.,?,?,?,?,?,?,?,?,?,?,?,?,?,?,?,?
Spanish,308,32,x,Perfect_Match,x,22,Does Christine still like Gary?,0,0,0,190,191,212,207,204,215,219,204,230,234,217,220,209,2056,0,0,0,0,0,0,0,0,0,0,0,0,0,0,0,0,0,0,Tense,?,?,?,For,months,"now,",Christine,has,wanted,to,marry,Gary.,Now,she,finds,him,unpleasant.,?,?,?,?,?,?,?,?,?,?,?,?,?,?,?,?,?,?
Spanish,308,35,m,Perfect_Match,m,6,Has Brenda wanted to become an actress?,151,217,189,218,305,199,217,269,173,940,318,209,622,339,173,222,237,224,345,0,0,0,0,0,0,0,0,0,0,0,0,0,0,0,0,Tense,Since,she,was,ten,years,"old,",Brenda,has,wanted,to,be,an,actress.,She,now,works,in,a,hospital.,?,?,?,?,?,?,?,?,?,?,?,?,?,?,?,?
Spanish,308,36,m,Perfect_Match,m,14,Did the band sell a million records?,0,0,180,198,180,178,211,521,190,219,402,480,203,214,220,228,0,0,0,0,0,0,0,0,0,0,0,0,0,0,0,0,0,0,0,Tense,?,?,Since,the,"beginning,",the,band,has,been,very,successful.,They,sold,a,million,records.,?,?,?,?,?,?,?,?,?,?,?,?,?,?,?,?,?,?,?
Spanish,308,55,x,Perfect_Match,x,18,Is the army a safe profession?,0,0,212,207,209,486,193,218,197,191,229,233,205,216,233,163,179,186,0,0,0,0,0,0,0,0,0,0,0,0,0,0,0,0,0,Tense,?,?,For,many,years,"now,",Judith,has,thought,about,joining,the,army.,It,is,a,dangerous,profession.,?,?,?,?,?,?,?,?,?,?,?,?,?,?,?,?,?
Spanish,308,79,x,Perfect_Match,m,2,Has the cat eaten only fish?,0,0,358,171,201,214,201,203,230,197,248,302,194,243,242,270,0,0,0,0,0,0,0,0,0,0,0,0,0,0,0,0,0,0,0,Tense,?,?,Since,last,"week,",the,cat,has,eaten,only,fish.,She,now,also,eats,meat.,?,?,?,?,?,?,?,?,?,?,?,?,?,?,?,?,?,?,?
Spanish,310,9,x,Perfect_Mismatch,x,17,Does Paul want to go out with only one woman?,0,0,0,624,448,448,465,610,1799,1643,641,2009,576,527,591,470,405,620,435,635,450,0,0,0,0,0,0,0,0,0,0,0,0,0,0,Tense,?,?,?,On,his,"birthday,",Paul,has,met,two,lovely,women.,He,wants,to,go,out,with,both,of,them.,?,?,?,?,?,?,?,?,?,?,?,?,?,?
Spanish,310,19,x,Perfect_Mismatch,x,5,Has James gone running every day?,0,0,0,0,639,365,432,318,416,692,1149,884,563,355,361,347,309,400,293,0,0,0,0,0,0,0,0,0,0,0,0,0,0,0,0,Tense,?,?,?,?,Last,"week,",James,has,gone,swimming,every,day.,Now,he,is,getting,bored,of,it.,?,?,?,?,?,?,?,?,?,?,?,?,?,?,?,?
Spanish,310,37,m,Perfect_Mismatch,m,21,Did Sandra think about quitting her job?,0,0,0,0,419,327,368,431,359,1056,389,415,447,324,760,365,632,0,0,0,0,0,0,0,0,0,0,0,0,0,0,0,0,0,0,Tense,?,?,?,?,Last,"month,",Sandra,has,felt,unhappy,at,work.,She,even,thought,about,leaving.,?,?,?,?,?,?,?,?,?,?,?,?,?,?,?,?,?,?
Spanish,310,44,x,Perfect_Mismatch,x,13,Is Emma’s work still exciting?,376,460,2066,384,327,317,305,345,292,338,748,599,415,965,506,476,383,1201,472,0,0,0,0,0,0,0,0,0,0,0,0,0,0,0,0,Tense,When,she,first,started,her,"job,",Emma,has,loved,the,work,very,much.,It,is,not,very,exciting,now.,?,?,?,?,?,?,?,?,?,?,?,?,?,?,?,?
Spanish,310,61,x,Perfect_Mismatch,x,9,Has Matt been a successful musician?,0,0,388,1459,948,486,407,370,483,1934,618,512,495,347,491,588,332,348,423,0,0,0,0,0,0,0,0,0,0,0,0,0,0,0,0,Tense,?,?,Once,many,years,"ago,",Matt,has,been,a,successful,businessman.,He,now,feels,unsatisfied,with,his,life.,?,?,?,?,?,?,?,?,?,?,?,?,?,?,?,?
Spanish,310,68,m,Perfect_Mismatch,m,1,Has Joe liked Mary’s old school-friends?,0,0,0,0,357,489,759,380,627,712,1281,3031,454,476,342,502,479,380,681,0,0,0,0,0,0,0,0,0,0,0,0,0,0,0,0,Tense,?,?,?,?,At,"first,",Joe,has,liked,Mary’s,old,school-friends.,He,does,not,think,they,are,boring.,?,?,?,?,?,?,?,?,?,?,?,?,?,?,?,?
Spanish,310,8,x,Perfect_Match,x,4,Has Sam thought Jenny was ugly?,0,384,401,482,447,452,739,1198,2525,610,414,668,867,508,349,402,1021,762,450,500,436,469,0,0,0,0,0,0,0,0,0,0,0,0,0,Tense,?,Since,he,first,saw,"her,",Sam,has,thought,Jenny,was,beautiful.,"However,",he,is,far,too,nervous,to,speak,to,her.,?,?,?,?,?,?,?,?,?,?,?,?,?
Spanish,310,10,x,Perfect_Match,x,8,Has William met his mother after work?,0,0,466,406,400,747,804,1619,761,2156,541,472,537,644,881,1031,501,360,349,375,745,625,706,3737,0,0,0,0,0,0,0,0,0,0,0,Tense,?,?,For,a,year,"now,",William,has,met,his,best,friend,after,work,every,Friday.,Now,he,spends,every,night,with,his,girlfriend.,?,?,?,?,?,?,?,?,?,?,?
Spanish,310,29,m,Perfect_Match,m,20,Did Jerry want to be a millionaire?,0,0,1694,411,381,295,308,365,337,483,282,370,631,428,351,278,250,350,781,0,0,0,0,0,0,0,0,0,0,0,0,0,0,0,0,Tense,?,?,Since,he,finished,"university,",Jerry,has,thought,about,starting,a,business.,He,wanted,to,be,a,millionaire.,?,?,?,?,?,?,?,?,?,?,?,?,?,?,?,?
Spanish,310,31,m,Perfect_Match,m,16,Was Barbara’s credit card bill enormous?,0,0,0,0,345,329,284,340,271,312,1753,1226,429,294,424,385,596,678,0,0,0,0,0,0,0,0,0,0,0,0,0,0,0,0,0,Tense,?,?,?,?,Since,"Christmas,",Barbara,has,spent,too,much,money.,Her,credit,card,bill,was,enormous.,?,?,?,?,?,?,?,?,?,?,?,?,?,?,?,?,?
Spanish,310,51,x,Perfect_Match,x,12,Has Kate studied Russian in her spare time?,0,0,0,355,269,309,346,327,308,358,323,326,348,1224,299,260,394,287,352,253,0,0,0,0,0,0,0,0,0,0,0,0,0,0,0,Tense,?,?,?,Since,last,"year,",Kate,has,studied,French,in,her,spare,time.,She,now,wants,to,learn,German.,?,?,?,?,?,?,?,?,?,?,?,?,?,?,?
Spanish,310,58,m,Perfect_Match,m,24,Does Michael want to become a professional?,0,0,0,418,424,309,312,340,349,350,386,358,352,291,312,320,292,306,476,0,0,0,0,0,0,0,0,0,0,0,0,0,0,0,0,Tense,?,?,?,Since,the,"summer,",Michael,has,learnt,to,play,poker.,He,now,wants,to,become,a,professional.,?,?,?,?,?,?,?,?,?,?,?,?,?,?,?,?
Spanish,312,8,m,Perfect_Mismatch,x,23,Does Ben pay the same amount for his insurance? ,0,0,0,0,317,604,426,319,577,277,409,374,308,322,299,466,333,303,340,362,532,0,0,0,0,0,0,0,0,0,0,0,0,0,0,Tense,?,?,?,?,In,"February,",Ben,has,crashed,his,car,four,times.,He,now,pays,a,lot,for,his,insurance.,?,?,?,?,?,?,?,?,?,?,?,?,?,?
Spanish,312,11,m,Perfect_Mismatch,x,3,Has the aunt visited our house?,0,0,0,698,594,347,963,436,628,353,322,626,513,321,385,815,0,0,0,0,0,0,0,0,0,0,0,0,0,0,0,0,0,0,0,Tense,?,?,?,"Yesterday,",my,old,neighbor,has,visited,our,house.,He,brought,us,a,cake.,?,?,?,?,?,?,?,?,?,?,?,?,?,?,?,?,?,?,?
Spanish,312,35,x,Perfect_Mismatch,x,19,Does Alan like baking bread now?,0,331,295,289,571,255,415,336,411,371,402,372,328,227,368,254,333,336,366,0,0,0,0,0,0,0,0,0,0,0,0,0,0,0,0,Tense,?,When,he,first,started,"cooking,",Alan,has,enjoyed,making,pasta,most,of,all.,He,now,likes,making,desserts.,?,?,?,?,?,?,?,?,?,?,?,?,?,?,?,?
Spanish,312,38,m,Perfect_Mismatch,m,7,Has Mark seen the film three times?,0,0,0,0,341,310,349,357,366,370,308,369,344,369,375,297,322,309,0,0,0,0,0,0,0,0,0,0,0,0,0,0,0,0,0,Tense,?,?,?,?,Last,"Friday,",Mark,has,seen,the,same,film,three,times.,He,really,loved,it.,?,?,?,?,?,?,?,?,?,?,?,?,?,?,?,?,?
Spanish,312,65,m,Perfect_Mismatch,m,11,Has Tom felt very unwell?,0,0,0,340,306,269,387,224,198,409,175,520,208,400,577,400,327,347,0,0,0,0,0,0,0,0,0,0,0,0,0,0,0,0,0,Tense,?,?,?,Three,days,"ago,",Tom,has,felt,very,unwell.,He,could,not,even,go,to,work.,?,?,?,?,?,?,?,?,?,?,?,?,?,?,?,?,?
Spanish,312,72,m,Perfect_Mismatch,m,15,Did Bert want to enter into a gardening competition?,0,0,0,0,294,234,492,251,300,407,641,231,201,218,345,237,325,240,286,242,235,261,0,0,0,0,0,0,0,0,0,0,0,0,0,Tense,?,?,?,?,Last,"spring,",Bert,has,planted,many,roses,in,the,garden.,He,wanted,to,enter,into,a,gardening,competition.,?,?,?,?,?,?,?,?,?,?,?,?,?
Spanish,312,4,x,Perfect_Match,x,18,Is the army a safe profession?,0,0,364,596,463,417,488,385,425,437,847,357,843,354,337,390,492,458,0,0,0,0,0,0,0,0,0,0,0,0,0,0,0,0,0,Tense,?,?,For,many,years,"now,",Judith,has,thought,about,joining,the,army.,It,is,a,dangerous,profession.,?,?,?,?,?,?,?,?,?,?,?,?,?,?,?,?,?
Spanish,312,19,x,Perfect_Match,m,2,Has the cat eaten only fish?,0,0,341,325,607,424,445,556,803,658,385,598,525,522,561,462,0,0,0,0,0,0,0,0,0,0,0,0,0,0,0,0,0,0,0,Tense,?,?,Since,last,"week,",the,cat,has,eaten,only,fish.,She,now,also,eats,meat.,?,?,?,?,?,?,?,?,?,?,?,?,?,?,?,?,?,?,?
Spanish,312,24,m,Perfect_Match,m,10,Has Jenny wanted to escape from her life?,0,325,272,271,351,265,383,362,365,546,283,781,328,293,788,264,342,604,326,0,0,0,0,0,0,0,0,0,0,0,0,0,0,0,0,Tense,?,Since,her,baby,was,"born,",Jenny,has,wanted,to,escape,from,her,life.,She,was,very,stressed,out.,?,?,?,?,?,?,?,?,?,?,?,?,?,?,?,?
Spanish,312,36,m,Perfect_Match,m,14,Did the band sell a million records?,0,0,281,334,427,498,601,256,255,266,477,299,192,277,269,267,0,0,0,0,0,0,0,0,0,0,0,0,0,0,0,0,0,0,0,Tense,?,?,Since,the,"beginning,",the,band,has,been,very,successful.,They,sold,a,million,records.,?,?,?,?,?,?,?,?,?,?,?,?,?,?,?,?,?,?,?
Spanish,312,67,x,Perfect_Match,x,22,Does Christine still like Gary?,0,0,0,268,255,309,497,242,247,294,220,391,372,448,247,566,450,0,0,0,0,0,0,0,0,0,0,0,0,0,0,0,0,0,0,Tense,?,?,?,For,months,"now,",Christine,has,wanted,to,marry,Gary.,Now,she,finds,him,unpleasant.,?,?,?,?,?,?,?,?,?,?,?,?,?,?,?,?,?,?
Spanish,312,81,m,Perfect_Match,m,6,Has Brenda wanted to become an actress?,315,460,249,290,282,328,291,268,325,293,291,265,243,305,232,348,286,267,236,0,0,0,0,0,0,0,0,0,0,0,0,0,0,0,0,Tense,Since,she,was,ten,years,"old,",Brenda,has,wanted,to,be,an,actress.,She,now,works,in,a,hospital.,?,?,?,?,?,?,?,?,?,?,?,?,?,?,?,?
Spanish,315,26,x,Perfect_Mismatch,m,2,Has the cat eaten only fish?,0,0,0,0,238,1375,445,401,432,577,326,852,375,363,508,643,0,0,0,0,0,0,0,0,0,0,0,0,0,0,0,0,0,0,0,Tense,?,?,?,?,"Initially,",the,cat,has,eaten,only,fish.,She,now,also,eats,meat.,?,?,?,?,?,?,?,?,?,?,?,?,?,?,?,?,?,?,?
Spanish,315,34,x,Perfect_Mismatch,x,22,Does Christine still like Gary?,0,0,0,0,367,409,659,599,1089,1154,410,784,480,549,380,717,832,0,0,0,0,0,0,0,0,0,0,0,0,0,0,0,0,0,0,Tense,?,?,?,?,At,"first,",Christine,has,wanted,to,marry,Gary.,Now,she,finds,him,unpleasant.,?,?,?,?,?,?,?,?,?,?,?,?,?,?,?,?,?,?
Spanish,315,48,x,Perfect_Mismatch,x,18,Is the army a safe profession?,0,0,0,428,363,424,362,310,396,512,328,539,310,455,463,398,530,390,0,0,0,0,0,0,0,0,0,0,0,0,0,0,0,0,0,Tense,?,?,?,Many,years,"ago,",Judith,has,thought,about,joining,the,army.,It,is,a,dangerous,profession.,?,?,?,?,?,?,?,?,?,?,?,?,?,?,?,?,?
Spanish,315,55,m,Perfect_Mismatch,m,14,Did the band sell a million records?,0,0,0,0,683,574,331,446,819,605,579,997,381,515,554,369,0,0,0,0,0,0,0,0,0,0,0,0,0,0,0,0,0,0,0,Tense,?,?,?,?,"Initially,",the,band,has,been,very,successful.,They,sold,a,million,records.,?,?,?,?,?,?,?,?,?,?,?,?,?,?,?,?,?,?,?
Spanish,315,61,x,Perfect_Mismatch,m,10,Has Jenny wanted to escape from her life?,0,416,284,556,216,318,403,206,224,262,489,254,273,296,424,500,407,283,386,0,0,0,0,0,0,0,0,0,0,0,0,0,0,0,0,Tense,?,Before,her,baby,was,"born,",Jenny,has,wanted,to,escape,from,her,life.,She,was,very,stressed,out.,?,?,?,?,?,?,?,?,?,?,?,?,?,?,?,?
Spanish,315,68,m,Perfect_Mismatch,m,6,Has Brenda wanted to become an actress?,244,246,213,272,255,311,202,180,277,543,280,320,247,305,503,188,248,251,209,0,0,0,0,0,0,0,0,0,0,0,0,0,0,0,0,Tense,When,she,was,ten,years,"old,",Brenda,has,wanted,to,be,an,actress.,She,now,works,in,a,hospital.,?,?,?,?,?,?,?,?,?,?,?,?,?,?,?,?
Spanish,315,11,x,Perfect_Match,x,9,Has Matt been a successful musician?,0,0,400,470,482,747,428,1116,419,285,333,1289,337,319,463,293,493,374,314,0,0,0,0,0,0,0,0,0,0,0,0,0,0,0,0,Tense,?,?,Since,he,was,"twenty,",Matt,has,been,a,successful,businessman.,He,now,feels,unsatisfied,with,his,life.,?,?,?,?,?,?,?,?,?,?,?,?,?,?,?,?
Spanish,315,33,x,Perfect_Match,x,17,Does Paul want to go out with only one woman?,0,0,0,536,401,617,481,866,468,568,406,436,365,397,350,362,325,439,418,430,336,0,0,0,0,0,0,0,0,0,0,0,0,0,0,Tense,?,?,?,Since,his,"birthday,",Paul,has,met,two,lovely,women.,He,wants,to,go,out,with,both,of,them.,?,?,?,?,?,?,?,?,?,?,?,?,?,?
Spanish,315,38,x,Perfect_Match,x,13,Is Emma’s work still exciting?,438,356,1005,701,377,350,372,358,782,336,1231,316,538,416,328,345,421,623,320,0,0,0,0,0,0,0,0,0,0,0,0,0,0,0,0,Tense,Since,she,first,started,her,"job,",Emma,has,loved,the,work,very,much.,It,is,not,very,exciting,now.,?,?,?,?,?,?,?,?,?,?,?,?,?,?,?,?
Spanish,315,43,m,Perfect_Match,m,1,Has Joe liked Mary’s old school-friends?,0,0,659,458,288,423,488,898,400,537,630,836,557,360,286,277,304,321,481,0,0,0,0,0,0,0,0,0,0,0,0,0,0,0,0,Tense,?,?,Since,he,met,"them,",Joe,has,liked,Mary’s,old,school-friends.,He,does,not,think,they,are,boring.,?,?,?,?,?,?,?,?,?,?,?,?,?,?,?,?
Spanish,315,70,m,Perfect_Match,m,21,Did Sandra think about quitting her job?,0,0,322,624,326,357,293,249,234,195,258,208,257,285,226,213,233,0,0,0,0,0,0,0,0,0,0,0,0,0,0,0,0,0,0,Tense,?,?,For,the,last,"month,",Sandra,has,felt,unhappy,at,work.,She,even,thought,about,leaving.,?,?,?,?,?,?,?,?,?,?,?,?,?,?,?,?,?,?
Spanish,315,75,m,Perfect_Match,x,5,Has James gone running every day?,0,0,0,353,448,289,490,321,236,525,1032,349,451,364,460,375,340,343,322,0,0,0,0,0,0,0,0,0,0,0,0,0,0,0,0,Tense,?,?,?,Since,the,"summer,",James,has,gone,swimming,every,day.,Now,he,is,getting,bored,of,it.,?,?,?,?,?,?,?,?,?,?,?,?,?,?,?,?
Spanish,316,13,x,Perfect_Mismatch,x,23,Does Ben pay the same amount for his insurance? ,0,0,0,0,814,226,438,335,562,806,530,440,509,379,288,269,274,278,284,279,529,0,0,0,0,0,0,0,0,0,0,0,0,0,0,Tense,?,?,?,?,In,"February,",Ben,has,crashed,his,car,four,times.,He,now,pays,a,lot,for,his,insurance.,?,?,?,?,?,?,?,?,?,?,?,?,?,?
Spanish,316,29,m,Perfect_Mismatch,m,15,Did Bert want to enter into a gardening competition?,0,0,0,0,298,253,248,290,267,241,272,249,257,243,275,239,272,263,262,300,259,258,0,0,0,0,0,0,0,0,0,0,0,0,0,Tense,?,?,?,?,Last,"spring,",Bert,has,planted,many,roses,in,the,garden.,He,wanted,to,enter,into,a,gardening,competition.,?,?,?,?,?,?,?,?,?,?,?,?,?
Spanish,316,38,m,Perfect_Mismatch,m,11,Has Tom felt very unwell?,0,0,0,244,246,297,208,246,338,211,249,239,230,235,201,232,291,244,0,0,0,0,0,0,0,0,0,0,0,0,0,0,0,0,0,Tense,?,?,?,Three,days,"ago,",Tom,has,felt,very,unwell.,He,could,not,even,go,to,work.,?,?,?,?,?,?,?,?,?,?,?,?,?,?,?,?,?
Spanish,316,44,m,Perfect_Mismatch,m,7,Has Mark seen the film three times?,0,0,0,0,183,224,250,335,214,229,456,240,232,265,250,246,254,242,0,0,0,0,0,0,0,0,0,0,0,0,0,0,0,0,0,Tense,?,?,?,?,Last,"Friday,",Mark,has,seen,the,same,film,three,times.,He,really,loved,it.,?,?,?,?,?,?,?,?,?,?,?,?,?,?,?,?,?
Spanish,316,66,x,Perfect_Mismatch,x,19,Does Alan like baking bread now?,0,367,204,244,229,340,197,222,270,293,237,276,303,240,219,252,248,157,257,0,0,0,0,0,0,0,0,0,0,0,0,0,0,0,0,Tense,?,When,he,first,started,"cooking,",Alan,has,enjoyed,making,pasta,most,of,all.,He,now,likes,making,desserts.,?,?,?,?,?,?,?,?,?,?,?,?,?,?,?,?
Spanish,316,81,m,Perfect_Mismatch,x,3,Has the aunt visited our house?,0,0,0,162,220,233,224,204,190,211,190,154,167,162,199,191,0,0,0,0,0,0,0,0,0,0,0,0,0,0,0,0,0,0,0,Tense,?,?,?,"Yesterday,",my,old,neighbor,has,visited,our,house.,He,brought,us,a,cake.,?,?,?,?,?,?,?,?,?,?,?,?,?,?,?,?,?,?,?
Spanish,316,6,x,Perfect_Match,x,22,Does Christine still like Gary?,0,0,0,254,232,338,653,219,343,264,247,398,349,237,272,320,518,0,0,0,0,0,0,0,0,0,0,0,0,0,0,0,0,0,0,Tense,?,?,?,For,months,"now,",Christine,has,wanted,to,marry,Gary.,Now,she,finds,him,unpleasant.,?,?,?,?,?,?,?,?,?,?,?,?,?,?,?,?,?,?
Spanish,316,11,m,Perfect_Match,m,14,Did the band sell a million records?,0,0,282,257,250,270,248,341,296,277,264,312,224,267,249,247,0,0,0,0,0,0,0,0,0,0,0,0,0,0,0,0,0,0,0,Tense,?,?,Since,the,"beginning,",the,band,has,been,very,successful.,They,sold,a,million,records.,?,?,?,?,?,?,?,?,?,?,?,?,?,?,?,?,?,?,?
Spanish,316,30,m,Perfect_Match,m,10,Has Jenny wanted to escape from her life?,0,243,261,253,314,219,245,241,258,229,237,241,251,215,269,263,226,248,251,0,0,0,0,0,0,0,0,0,0,0,0,0,0,0,0,Tense,?,Since,her,baby,was,"born,",Jenny,has,wanted,to,escape,from,her,life.,She,was,very,stressed,out.,?,?,?,?,?,?,?,?,?,?,?,?,?,?,?,?
Spanish,316,78,x,Perfect_Match,m,6,Has Brenda wanted to become an actress?,175,203,195,221,162,198,209,197,179,223,230,204,186,189,208,193,211,191,198,0,0,0,0,0,0,0,0,0,0,0,0,0,0,0,0,Tense,Since,she,was,ten,years,"old,",Brenda,has,wanted,to,be,an,actress.,She,now,works,in,a,hospital.,?,?,?,?,?,?,?,?,?,?,?,?,?,?,?,?
Spanish,316,79,x,Perfect_Match,m,2,Has the cat eaten only fish?,0,0,228,203,193,222,189,179,169,195,177,179,149,157,291,196,0,0,0,0,0,0,0,0,0,0,0,0,0,0,0,0,0,0,0,Tense,?,?,Since,last,"week,",the,cat,has,eaten,only,fish.,She,now,also,eats,meat.,?,?,?,?,?,?,?,?,?,?,?,?,?,?,?,?,?,?,?
Spanish,316,84,x,Perfect_Match,x,18,Is the army a safe profession?,0,0,164,189,212,652,228,174,266,241,198,202,215,203,295,173,275,220,0,0,0,0,0,0,0,0,0,0,0,0,0,0,0,0,0,Tense,?,?,For,many,years,"now,",Judith,has,thought,about,joining,the,army.,It,is,a,dangerous,profession.,?,?,?,?,?,?,?,?,?,?,?,?,?,?,?,?,?
Spanish,319,10,m,Perfect_Mismatch,m,2,Has the cat eaten only fish?,0,0,0,0,509,401,461,493,418,299,362,569,365,460,478,482,0,0,0,0,0,0,0,0,0,0,0,0,0,0,0,0,0,0,0,Tense,?,?,?,?,"Initially,",the,cat,has,eaten,only,fish.,She,now,also,eats,meat.,?,?,?,?,?,?,?,?,?,?,?,?,?,?,?,?,?,?,?
Spanish,319,14,x,Perfect_Mismatch,x,22,Does Christine still like Gary?,0,0,0,0,558,415,682,383,371,366,541,3388,516,450,506,766,781,0,0,0,0,0,0,0,0,0,0,0,0,0,0,0,0,0,0,Tense,?,?,?,?,At,"first,",Christine,has,wanted,to,marry,Gary.,Now,she,finds,him,unpleasant.,?,?,?,?,?,?,?,?,?,?,?,?,?,?,?,?,?,?
Spanish,319,15,x,Perfect_Mismatch,x,18,Is the army a safe profession?,0,0,0,589,397,378,564,511,969,644,597,405,720,359,308,438,741,451,0,0,0,0,0,0,0,0,0,0,0,0,0,0,0,0,0,Tense,?,?,?,Many,years,"ago,",Judith,has,thought,about,joining,the,army.,It,is,a,dangerous,profession.,?,?,?,?,?,?,?,?,?,?,?,?,?,?,?,?,?
Spanish,319,44,m,Perfect_Mismatch,m,14,Did the band sell a million records?,0,0,0,0,482,301,247,241,485,470,796,325,330,329,360,292,0,0,0,0,0,0,0,0,0,0,0,0,0,0,0,0,0,0,0,Tense,?,?,?,?,"Initially,",the,band,has,been,very,successful.,They,sold,a,million,records.,?,?,?,?,?,?,?,?,?,?,?,?,?,?,?,?,?,?,?
Spanish,319,63,m,Perfect_Mismatch,m,10,Has Jenny wanted to escape from her life?,0,243,294,319,287,287,382,266,292,283,500,344,269,496,346,268,300,439,284,0,0,0,0,0,0,0,0,0,0,0,0,0,0,0,0,Tense,?,Before,her,baby,was,"born,",Jenny,has,wanted,to,escape,from,her,life.,She,was,very,stressed,out.,?,?,?,?,?,?,?,?,?,?,?,?,?,?,?,?
Spanish,319,72,m,Perfect_Mismatch,m,6,Has Brenda wanted to become an actress?,349,319,337,320,386,262,453,289,313,446,303,242,451,315,574,353,315,339,538,0,0,0,0,0,0,0,0,0,0,0,0,0,0,0,0,Tense,When,she,was,ten,years,"old,",Brenda,has,wanted,to,be,an,actress.,She,now,works,in,a,hospital.,?,?,?,?,?,?,?,?,?,?,?,?,?,?,?,?
Spanish,319,21,m,Perfect_Match,m,1,Has Joe liked Mary’s old school-friends?,0,0,258,334,230,402,338,342,271,336,469,466,721,900,382,341,489,346,546,0,0,0,0,0,0,0,0,0,0,0,0,0,0,0,0,Tense,?,?,Since,he,met,"them,",Joe,has,liked,Mary’s,old,school-friends.,He,does,not,think,they,are,boring.,?,?,?,?,?,?,?,?,?,?,?,?,?,?,?,?
Spanish,319,27,x,Perfect_Match,x,5,Has James gone running every day?,0,0,0,392,385,445,412,493,617,474,801,1610,447,299,309,407,474,418,585,0,0,0,0,0,0,0,0,0,0,0,0,0,0,0,0,Tense,?,?,?,Since,the,"summer,",James,has,gone,swimming,every,day.,Now,he,is,getting,bored,of,it.,?,?,?,?,?,?,?,?,?,?,?,?,?,?,?,?
Spanish,319,28,x,Perfect_Match,x,17,Does Paul want to go out with only one woman?,0,0,0,745,468,608,1067,650,569,472,555,435,1047,468,359,349,381,353,527,419,369,0,0,0,0,0,0,0,0,0,0,0,0,0,0,Tense,?,?,?,Since,his,"birthday,",Paul,has,met,two,lovely,women.,He,wants,to,go,out,with,both,of,them.,?,?,?,?,?,?,?,?,?,?,?,?,?,?
Spanish,319,42,x,Perfect_Match,x,13,Is Emma’s work still exciting?,183,377,393,195,391,522,527,377,224,287,210,379,211,415,127,439,413,1304,398,0,0,0,0,0,0,0,0,0,0,0,0,0,0,0,0,Tense,Since,she,first,started,her,"job,",Emma,has,loved,the,work,very,much.,It,is,not,very,exciting,now.,?,?,?,?,?,?,?,?,?,?,?,?,?,?,?,?
Spanish,319,52,x,Perfect_Match,x,9,Has Matt been a successful musician?,0,0,421,271,403,228,465,281,451,233,462,273,378,939,439,249,472,307,705,0,0,0,0,0,0,0,0,0,0,0,0,0,0,0,0,Tense,?,?,Since,he,was,"twenty,",Matt,has,been,a,successful,businessman.,He,now,feels,unsatisfied,with,his,life.,?,?,?,?,?,?,?,?,?,?,?,?,?,?,?,?
Spanish,319,67,m,Perfect_Match,m,21,Did Sandra think about quitting her job?,0,0,358,339,301,320,479,446,475,482,289,1059,449,361,726,406,524,0,0,0,0,0,0,0,0,0,0,0,0,0,0,0,0,0,0,Tense,?,?,For,the,last,"month,",Sandra,has,felt,unhappy,at,work.,She,even,thought,about,leaving.,?,?,?,?,?,?,?,?,?,?,?,?,?,?,?,?,?,?
Spanish,320,11,x,Perfect_Mismatch,m,11,Has Tom felt very unwell?,0,0,0,352,122,107,270,190,182,196,174,408,371,843,196,143,172,395,0,0,0,0,0,0,0,0,0,0,0,0,0,0,0,0,0,Tense,?,?,?,Three,days,"ago,",Tom,has,felt,very,unwell.,He,could,not,even,go,to,work.,?,?,?,?,?,?,?,?,?,?,?,?,?,?,?,?,?
Spanish,320,28,m,Perfect_Mismatch,m,7,Has Mark seen the film three times?,0,0,0,0,176,128,124,129,140,173,126,156,149,153,175,149,148,149,0,0,0,0,0,0,0,0,0,0,0,0,0,0,0,0,0,Tense,?,?,?,?,Last,"Friday,",Mark,has,seen,the,same,film,three,times.,He,really,loved,it.,?,?,?,?,?,?,?,?,?,?,?,?,?,?,?,?,?
Spanish,320,44,x,Perfect_Mismatch,x,23,Does Ben pay the same amount for his insurance? ,0,0,0,0,238,165,149,155,167,165,155,160,176,161,192,169,149,152,164,175,173,0,0,0,0,0,0,0,0,0,0,0,0,0,0,Tense,?,?,?,?,In,"February,",Ben,has,crashed,his,car,four,times.,He,now,pays,a,lot,for,his,insurance.,?,?,?,?,?,?,?,?,?,?,?,?,?,?
Spanish,320,57,x,Perfect_Mismatch,x,19,Does Alan like baking bread now?,0,193,219,2790,316,162,1374,176,153,154,152,134,128,117,395,182,143,149,161,0,0,0,0,0,0,0,0,0,0,0,0,0,0,0,0,Tense,?,When,he,first,started,"cooking,",Alan,has,enjoyed,making,pasta,most,of,all.,He,now,likes,making,desserts.,?,?,?,?,?,?,?,?,?,?,?,?,?,?,?,?
Spanish,320,65,x,Perfect_Mismatch,x,3,Has the aunt visited our house?,0,0,0,139,125,151,144,140,115,263,152,147,220,329,138,148,0,0,0,0,0,0,0,0,0,0,0,0,0,0,0,0,0,0,0,Tense,?,?,?,"Yesterday,",my,old,neighbor,has,visited,our,house.,He,brought,us,a,cake.,?,?,?,?,?,?,?,?,?,?,?,?,?,?,?,?,?,?,?
Spanish,320,66,m,Perfect_Mismatch,m,15,Did Bert want to enter into a gardening competition?,0,0,0,0,160,116,138,169,148,144,178,142,205,180,137,122,196,290,128,328,150,114,0,0,0,0,0,0,0,0,0,0,0,0,0,Tense,?,?,?,?,Last,"spring,",Bert,has,planted,many,roses,in,the,garden.,He,wanted,to,enter,into,a,gardening,competition.,?,?,?,?,?,?,?,?,?,?,?,?,?
Spanish,320,33,x,Perfect_Match,x,22,Does Christine still like Gary?,0,0,0,271,182,148,154,121,191,209,199,162,181,133,176,188,173,0,0,0,0,0,0,0,0,0,0,0,0,0,0,0,0,0,0,Tense,?,?,?,For,months,"now,",Christine,has,wanted,to,marry,Gary.,Now,she,finds,him,unpleasant.,?,?,?,?,?,?,?,?,?,?,?,?,?,?,?,?,?,?
Spanish,320,35,m,Perfect_Match,m,6,Has Brenda wanted to become an actress?,204,184,158,168,133,152,167,148,147,174,169,152,166,141,153,144,166,147,383,0,0,0,0,0,0,0,0,0,0,0,0,0,0,0,0,Tense,Since,she,was,ten,years,"old,",Brenda,has,wanted,to,be,an,actress.,She,now,works,in,a,hospital.,?,?,?,?,?,?,?,?,?,?,?,?,?,?,?,?
Spanish,320,42,x,Perfect_Match,x,18,Is the army a safe profession?,0,0,148,155,145,162,141,147,156,162,176,152,149,139,168,177,123,174,0,0,0,0,0,0,0,0,0,0,0,0,0,0,0,0,0,Tense,?,?,For,many,years,"now,",Judith,has,thought,about,joining,the,army.,It,is,a,dangerous,profession.,?,?,?,?,?,?,?,?,?,?,?,?,?,?,?,?,?
Spanish,320,50,x,Perfect_Match,m,2,Has the cat eaten only fish?,0,0,143,160,141,171,157,161,194,198,164,165,178,178,189,177,0,0,0,0,0,0,0,0,0,0,0,0,0,0,0,0,0,0,0,Tense,?,?,Since,last,"week,",the,cat,has,eaten,only,fish.,She,now,also,eats,meat.,?,?,?,?,?,?,?,?,?,?,?,?,?,?,?,?,?,?,?
Spanish,320,71,m,Perfect_Match,m,14,Did the band sell a million records?,0,0,104,122,114,148,136,153,172,133,191,166,174,196,180,155,0,0,0,0,0,0,0,0,0,0,0,0,0,0,0,0,0,0,0,Tense,?,?,Since,the,"beginning,",the,band,has,been,very,successful.,They,sold,a,million,records.,?,?,?,?,?,?,?,?,?,?,?,?,?,?,?,?,?,?,?
Spanish,320,81,m,Perfect_Match,m,10,Has Jenny wanted to escape from her life?,0,119,108,262,148,111,53,220,62,52,74,60,70,50,70,65,334,45,57,0,0,0,0,0,0,0,0,0,0,0,0,0,0,0,0,Tense,?,Since,her,baby,was,"born,",Jenny,has,wanted,to,escape,from,her,life.,She,was,very,stressed,out.,?,?,?,?,?,?,?,?,?,?,?,?,?,?,?,?
Spanish,321,4,m,Perfect_Mismatch,m,20,Did Jerry want to be a millionaire?,0,0,1524,872,1534,694,816,512,1285,693,651,536,640,886,1020,706,633,478,941,0,0,0,0,0,0,0,0,0,0,0,0,0,0,0,0,Tense,?,?,When,he,finished,"university,",Jerry,has,thought,about,starting,a,business.,He,wanted,to,be,a,millionaire.,?,?,?,?,?,?,?,?,?,?,?,?,?,?,?,?
Spanish,321,9,m,Perfect_Mismatch,m,24,Does Michael want to become a professional?,0,0,0,0,972,555,803,589,589,465,709,557,444,493,521,481,577,662,515,0,0,0,0,0,0,0,0,0,0,0,0,0,0,0,0,Tense,?,?,?,?,Last,"year,",Michael,has,learnt,to,play,poker.,He,now,wants,to,become,a,professional.,?,?,?,?,?,?,?,?,?,?,?,?,?,?,?,?
Spanish,321,22,x,Perfect_Mismatch,x,8,Has William met his mother after work?,0,0,0,610,571,541,552,501,524,515,608,536,670,557,556,842,687,717,613,620,694,570,521,880,0,0,0,0,0,0,0,0,0,0,0,Tense,?,?,?,A,year,"ago,",William,has,met,his,best,friend,after,work,every,Friday.,Now,he,spends,every,night,with,his,girlfriend.,?,?,?,?,?,?,?,?,?,?,?
Spanish,321,33,m,Perfect_Mismatch,m,16,Was Barbara’s credit card bill enormous?,0,0,0,0,356,583,585,487,791,663,427,735,1127,499,400,449,510,757,0,0,0,0,0,0,0,0,0,0,0,0,0,0,0,0,0,Tense,?,?,?,?,At,"Christmas,",Barbara,has,spent,too,much,money.,Her,credit,card,bill,was,enormous.,?,?,?,?,?,?,?,?,?,?,?,?,?,?,?,?,?
Spanish,321,70,x,Perfect_Mismatch,x,12,Has Kate studied Russian in her spare time?,0,0,0,0,406,248,290,418,406,439,460,412,452,524,432,450,429,402,402,483,0,0,0,0,0,0,0,0,0,0,0,0,0,0,0,Tense,?,?,?,?,Last,"year,",Kate,has,studied,French,in,her,spare,time.,She,now,wants,to,learn,German.,?,?,?,?,?,?,?,?,?,?,?,?,?,?,?
Spanish,321,81,x,Perfect_Mismatch,x,4,Has Sam thought Jenny was ugly?,0,0,526,428,361,630,476,547,634,428,435,780,645,455,588,469,385,763,438,437,425,395,0,0,0,0,0,0,0,0,0,0,0,0,0,Tense,?,?,When,he,saw,"her,",Sam,has,thought,Jenny,was,beautiful.,"However,",he,is,far,too,nervous,to,speak,to,her.,?,?,?,?,?,?,?,?,?,?,?,?,?
Spanish,321,6,x,Perfect_Match,x,19,Does Alan like baking bread now?,0,1169,902,1153,628,791,670,614,729,865,864,726,847,762,1103,726,742,608,653,0,0,0,0,0,0,0,0,0,0,0,0,0,0,0,0,Tense,?,Since,he,first,started,"cooking,",Alan,has,enjoyed,making,pasta,most,of,all.,He,now,likes,making,desserts.,?,?,?,?,?,?,?,?,?,?,?,?,?,?,?,?
Spanish,321,14,m,Perfect_Match,m,15,Did Bert want to enter into a gardening competition?,0,0,0,0,1022,1404,4398,368,386,420,514,469,352,618,523,478,369,668,438,521,754,758,0,0,0,0,0,0,0,0,0,0,0,0,0,Tense,?,?,?,?,Since,"spring,",Bert,has,planted,many,roses,in,the,garden.,He,wanted,to,enter,into,a,gardening,competition.,?,?,?,?,?,?,?,?,?,?,?,?,?
Spanish,321,45,m,Perfect_Match,m,7,Has Mark seen the film three times?,0,0,0,324,304,392,506,435,293,914,540,447,438,1252,634,480,451,592,0,0,0,0,0,0,0,0,0,0,0,0,0,0,0,0,0,Tense,?,?,?,Since,last,"Friday,",Mark,has,seen,the,same,film,three,times.,He,really,loved,it.,?,?,?,?,?,?,?,?,?,?,?,?,?,?,?,?,?
Spanish,321,56,x,Perfect_Match,x,23,Does Ben pay the same amount for his insurance? ,0,0,0,0,1311,351,1097,357,352,431,353,625,1438,444,353,401,606,469,394,407,717,0,0,0,0,0,0,0,0,0,0,0,0,0,0,Tense,?,?,?,?,Since,"February,",Ben,has,crashed,his,car,four,times.,He,now,pays,a,lot,for,his,insurance.,?,?,?,?,?,?,?,?,?,?,?,?,?,?
Spanish,321,76,m,Perfect_Match,m,11,Has Tom felt very unwell?,0,474,437,744,564,498,513,435,427,359,1421,1031,586,362,420,397,402,416,0,0,0,0,0,0,0,0,0,0,0,0,0,0,0,0,0,Tense,?,For,the,last,three,"days,",Tom,has,felt,very,unwell.,He,could,not,even,go,to,work.,?,?,?,?,?,?,?,?,?,?,?,?,?,?,?,?,?
Spanish,321,82,m,Perfect_Match,x,3,Has the aunt visited our house?,472,448,689,425,406,562,774,692,532,699,1841,580,565,672,760,1127,0,0,0,0,0,0,0,0,0,0,0,0,0,0,0,0,0,0,0,Tense,Since,he,moved,"in,",my,old,neighbor,has,visited,our,house.,He,brought,us,a,cake.,?,?,?,?,?,?,?,?,?,?,?,?,?,?,?,?,?,?,?
Spanish,323,6,x,Perfect_Mismatch,m,2,Has the cat eaten only fish?,0,0,0,0,1303,876,692,506,508,1898,2487,1409,817,505,1621,504,0,0,0,0,0,0,0,0,0,0,0,0,0,0,0,0,0,0,0,Tense,?,?,?,?,"Initially,",the,cat,has,eaten,only,fish.,She,now,also,eats,meat.,?,?,?,?,?,?,?,?,?,?,?,?,?,?,?,?,?,?,?
Spanish,323,10,x,Perfect_Mismatch,x,22,Does Christine still like Gary?,0,0,0,0,562,357,454,513,501,631,744,361,529,395,607,394,599,0,0,0,0,0,0,0,0,0,0,0,0,0,0,0,0,0,0,Tense,?,?,?,?,At,"first,",Christine,has,wanted,to,marry,Gary.,Now,she,finds,him,unpleasant.,?,?,?,?,?,?,?,?,?,?,?,?,?,?,?,?,?,?
Spanish,323,17,x,Perfect_Mismatch,x,18,Is the army a safe profession?,0,0,0,495,393,467,571,404,436,387,382,339,397,412,385,361,495,609,0,0,0,0,0,0,0,0,0,0,0,0,0,0,0,0,0,Tense,?,?,?,Many,years,"ago,",Judith,has,thought,about,joining,the,army.,It,is,a,dangerous,profession.,?,?,?,?,?,?,?,?,?,?,?,?,?,?,?,?,?
Spanish,323,22,m,Perfect_Mismatch,m,14,Did the band sell a million records?,0,0,0,0,363,349,326,292,281,268,525,1370,750,401,332,1334,0,0,0,0,0,0,0,0,0,0,0,0,0,0,0,0,0,0,0,Tense,?,?,?,?,"Initially,",the,band,has,been,very,successful.,They,sold,a,million,records.,?,?,?,?,?,?,?,?,?,?,?,?,?,?,?,?,?,?,?
Spanish,323,50,m,Perfect_Mismatch,m,10,Has Jenny wanted to escape from her life?,0,276,289,258,294,305,262,278,299,285,464,334,308,326,409,450,669,309,396,0,0,0,0,0,0,0,0,0,0,0,0,0,0,0,0,Tense,?,Before,her,baby,was,"born,",Jenny,has,wanted,to,escape,from,her,life.,She,was,very,stressed,out.,?,?,?,?,?,?,?,?,?,?,?,?,?,?,?,?
Spanish,323,56,m,Perfect_Mismatch,m,6,Has Brenda wanted to become an actress?,245,254,211,207,541,243,383,599,254,343,312,292,261,341,205,357,236,309,346,0,0,0,0,0,0,0,0,0,0,0,0,0,0,0,0,Tense,When,she,was,ten,years,"old,",Brenda,has,wanted,to,be,an,actress.,She,now,works,in,a,hospital.,?,?,?,?,?,?,?,?,?,?,?,?,?,?,?,?
Spanish,323,8,x,Perfect_Match,x,17,Does Paul want to go out with only one woman?,0,0,0,566,528,1107,3269,974,711,1517,1076,1000,1363,1055,1809,753,1349,494,562,632,2399,0,0,0,0,0,0,0,0,0,0,0,0,0,0,Tense,?,?,?,Since,his,"birthday,",Paul,has,met,two,lovely,women.,He,wants,to,go,out,with,both,of,them.,?,?,?,?,?,?,?,?,?,?,?,?,?,?
Spanish,323,40,x,Perfect_Match,m,1,Has Joe liked Mary’s old school-friends?,0,0,300,253,460,281,368,1191,389,661,422,970,474,774,473,594,431,446,778,0,0,0,0,0,0,0,0,0,0,0,0,0,0,0,0,Tense,?,?,Since,he,met,"them,",Joe,has,liked,Mary’s,old,school-friends.,He,does,not,think,they,are,boring.,?,?,?,?,?,?,?,?,?,?,?,?,?,?,?,?
Spanish,323,61,m,Perfect_Match,m,21,Did Sandra think about quitting her job?,0,0,295,307,302,309,268,438,278,308,382,312,372,404,398,330,311,0,0,0,0,0,0,0,0,0,0,0,0,0,0,0,0,0,0,Tense,?,?,For,the,last,"month,",Sandra,has,felt,unhappy,at,work.,She,even,thought,about,leaving.,?,?,?,?,?,?,?,?,?,?,?,?,?,?,?,?,?,?
Spanish,323,69,x,Perfect_Match,x,9,Has Matt been a successful musician?,0,0,374,443,580,375,450,395,406,381,377,360,872,754,1357,360,513,465,443,0,0,0,0,0,0,0,0,0,0,0,0,0,0,0,0,Tense,?,?,Since,he,was,"twenty,",Matt,has,been,a,successful,businessman.,He,now,feels,unsatisfied,with,his,life.,?,?,?,?,?,?,?,?,?,?,?,?,?,?,?,?
Spanish,323,70,x,Perfect_Match,x,13,Is Emma’s work still exciting?,502,582,661,472,434,357,571,295,356,320,362,316,355,416,310,300,257,262,376,0,0,0,0,0,0,0,0,0,0,0,0,0,0,0,0,Tense,Since,she,first,started,her,"job,",Emma,has,loved,the,work,very,much.,It,is,not,very,exciting,now.,?,?,?,?,?,?,?,?,?,?,?,?,?,?,?,?
Spanish,323,78,x,Perfect_Match,x,5,Has James gone running every day?,0,0,0,340,384,443,960,1395,288,1750,659,416,525,354,317,326,625,370,367,0,0,0,0,0,0,0,0,0,0,0,0,0,0,0,0,Tense,?,?,?,Since,the,"summer,",James,has,gone,swimming,every,day.,Now,he,is,getting,bored,of,it.,?,?,?,?,?,?,?,?,?,?,?,?,?,?,?,?
Spanish,324,10,x,Perfect_Mismatch,x,3,Has the aunt visited our house?,0,0,0,361,438,368,196,715,553,309,363,1067,373,312,363,361,0,0,0,0,0,0,0,0,0,0,0,0,0,0,0,0,0,0,0,Tense,?,?,?,"Yesterday,",my,old,neighbor,has,visited,our,house.,He,brought,us,a,cake.,?,?,?,?,?,?,?,?,?,?,?,?,?,?,?,?,?,?,?
Spanish,324,13,m,Perfect_Mismatch,m,11,Has Tom felt very unwell?,0,0,0,365,366,271,416,417,237,280,437,719,369,323,389,382,394,556,0,0,0,0,0,0,0,0,0,0,0,0,0,0,0,0,0,Tense,?,?,?,Three,days,"ago,",Tom,has,felt,very,unwell.,He,could,not,even,go,to,work.,?,?,?,?,?,?,?,?,?,?,?,?,?,?,?,?,?
Spanish,324,24,x,Perfect_Mismatch,x,19,Does Alan like baking bread now?,0,457,321,600,361,350,605,314,488,366,406,327,279,264,654,400,211,356,331,0,0,0,0,0,0,0,0,0,0,0,0,0,0,0,0,Tense,?,When,he,first,started,"cooking,",Alan,has,enjoyed,making,pasta,most,of,all.,He,now,likes,making,desserts.,?,?,?,?,?,?,?,?,?,?,?,?,?,?,?,?
Spanish,324,41,x,Perfect_Mismatch,x,23,Does Ben pay the same amount for his insurance? ,0,0,0,0,647,513,784,386,291,607,308,471,672,926,412,461,355,289,365,379,672,0,0,0,0,0,0,0,0,0,0,0,0,0,0,Tense,?,?,?,?,In,"February,",Ben,has,crashed,his,car,four,times.,He,now,pays,a,lot,for,his,insurance.,?,?,?,?,?,?,?,?,?,?,?,?,?,?
Spanish,324,59,m,Perfect_Mismatch,m,7,Has Mark seen the film three times?,0,0,0,0,444,311,654,376,322,279,369,325,424,519,775,371,440,664,0,0,0,0,0,0,0,0,0,0,0,0,0,0,0,0,0,Tense,?,?,?,?,Last,"Friday,",Mark,has,seen,the,same,film,three,times.,He,really,loved,it.,?,?,?,?,?,?,?,?,?,?,?,?,?,?,?,?,?
Spanish,324,72,m,Perfect_Mismatch,m,15,Did Bert want to enter into a gardening competition?,0,0,0,0,341,253,1012,374,428,445,494,564,197,590,1009,450,299,277,337,362,488,427,0,0,0,0,0,0,0,0,0,0,0,0,0,Tense,?,?,?,?,Last,"spring,",Bert,has,planted,many,roses,in,the,garden.,He,wanted,to,enter,into,a,gardening,competition.,?,?,?,?,?,?,?,?,?,?,?,?,?
Spanish,324,27,m,Perfect_Match,m,14,Did the band sell a million records?,0,0,603,1362,1196,610,306,355,428,470,1375,786,504,411,477,389,0,0,0,0,0,0,0,0,0,0,0,0,0,0,0,0,0,0,0,Tense,?,?,Since,the,"beginning,",the,band,has,been,very,successful.,They,sold,a,million,records.,?,?,?,?,?,?,?,?,?,?,?,?,?,?,?,?,?,?,?
Spanish,324,30,x,Perfect_Match,x,22,Does Christine still like Gary?,0,0,0,515,680,554,694,412,187,469,340,324,823,365,445,326,845,0,0,0,0,0,0,0,0,0,0,0,0,0,0,0,0,0,0,Tense,?,?,?,For,months,"now,",Christine,has,wanted,to,marry,Gary.,Now,she,finds,him,unpleasant.,?,?,?,?,?,?,?,?,?,?,?,?,?,?,?,?,?,?
Spanish,324,50,m,Perfect_Match,m,6,Has Brenda wanted to become an actress?,492,666,417,349,396,289,482,509,367,359,303,369,420,619,154,424,348,352,469,0,0,0,0,0,0,0,0,0,0,0,0,0,0,0,0,Tense,Since,she,was,ten,years,"old,",Brenda,has,wanted,to,be,an,actress.,She,now,works,in,a,hospital.,?,?,?,?,?,?,?,?,?,?,?,?,?,?,?,?
Spanish,324,56,m,Perfect_Match,m,2,Has the cat eaten only fish?,0,0,520,287,352,585,464,581,544,591,997,370,496,421,318,349,0,0,0,0,0,0,0,0,0,0,0,0,0,0,0,0,0,0,0,Tense,?,?,Since,last,"week,",the,cat,has,eaten,only,fish.,She,now,also,eats,meat.,?,?,?,?,?,?,?,?,?,?,?,?,?,?,?,?,?,?,?
Spanish,324,75,m,Perfect_Match,m,10,Has Jenny wanted to escape from her life?,0,536,421,233,397,398,734,288,345,496,526,424,337,365,1186,332,329,534,408,0,0,0,0,0,0,0,0,0,0,0,0,0,0,0,0,Tense,?,Since,her,baby,was,"born,",Jenny,has,wanted,to,escape,from,her,life.,She,was,very,stressed,out.,?,?,?,?,?,?,?,?,?,?,?,?,?,?,?,?
Spanish,324,81,x,Perfect_Match,x,18,Is the army a safe profession?,0,0,825,469,409,601,777,673,438,721,434,409,401,797,464,413,541,905,0,0,0,0,0,0,0,0,0,0,0,0,0,0,0,0,0,Tense,?,?,For,many,years,"now,",Judith,has,thought,about,joining,the,army.,It,is,a,dangerous,profession.,?,?,?,?,?,?,?,?,?,?,?,?,?,?,?,?,?
Spanish,325,2,x,Perfect_Mismatch,x,8,Has William met his mother after work?,0,0,0,282,283,244,352,232,273,210,459,224,240,427,218,252,446,232,231,200,217,235,246,234,0,0,0,0,0,0,0,0,0,0,0,Tense,?,?,?,A,year,"ago,",William,has,met,his,best,friend,after,work,every,Friday.,Now,he,spends,every,night,with,his,girlfriend.,?,?,?,?,?,?,?,?,?,?,?
Spanish,325,16,x,Perfect_Mismatch,x,4,Has Sam thought Jenny was ugly?,0,0,200,269,237,210,290,263,212,368,198,119,162,289,221,183,188,191,232,121,99,148,0,0,0,0,0,0,0,0,0,0,0,0,0,Tense,?,?,When,he,saw,"her,",Sam,has,thought,Jenny,was,beautiful.,"However,",he,is,far,too,nervous,to,speak,to,her.,?,?,?,?,?,?,?,?,?,?,?,?,?
Spanish,325,44,x,Perfect_Mismatch,x,12,Has Kate studied Russian in her spare time?,0,0,0,0,539,449,500,347,266,256,171,130,81,93,274,274,169,106,324,148,0,0,0,0,0,0,0,0,0,0,0,0,0,0,0,Tense,?,?,?,?,Last,"year,",Kate,has,studied,French,in,her,spare,time.,She,now,wants,to,learn,German.,?,?,?,?,?,?,?,?,?,?,?,?,?,?,?
Spanish,325,49,m,Perfect_Mismatch,m,16,Was Barbara’s credit card bill enormous?,0,0,0,0,411,248,320,144,132,134,140,148,144,142,140,156,163,148,0,0,0,0,0,0,0,0,0,0,0,0,0,0,0,0,0,Tense,?,?,?,?,At,"Christmas,",Barbara,has,spent,too,much,money.,Her,credit,card,bill,was,enormous.,?,?,?,?,?,?,?,?,?,?,?,?,?,?,?,?,?
Spanish,325,60,m,Perfect_Mismatch,m,24,Does Michael want to become a professional?,0,0,0,0,319,350,728,467,365,390,266,277,289,195,144,178,137,125,135,0,0,0,0,0,0,0,0,0,0,0,0,0,0,0,0,Tense,?,?,?,?,Last,"year,",Michael,has,learnt,to,play,poker.,He,now,wants,to,become,a,professional.,?,?,?,?,?,?,?,?,?,?,?,?,?,?,?,?
Spanish,325,70,m,Perfect_Mismatch,m,20,Did Jerry want to be a millionaire?,0,0,405,304,293,280,333,306,298,227,219,238,167,112,178,153,154,135,136,0,0,0,0,0,0,0,0,0,0,0,0,0,0,0,0,Tense,?,?,When,he,finished,"university,",Jerry,has,thought,about,starting,a,business.,He,wanted,to,be,a,millionaire.,?,?,?,?,?,?,?,?,?,?,?,?,?,?,?,?
Spanish,325,35,x,Perfect_Match,x,23,Does Ben pay the same amount for his insurance? ,0,0,0,0,317,225,440,264,378,250,233,169,201,144,191,177,151,141,146,123,129,0,0,0,0,0,0,0,0,0,0,0,0,0,0,Tense,?,?,?,?,Since,"February,",Ben,has,crashed,his,car,four,times.,He,now,pays,a,lot,for,his,insurance.,?,?,?,?,?,?,?,?,?,?,?,?,?,?
Spanish,325,38,m,Perfect_Match,x,19,Does Alan like baking bread now?,0,292,280,224,193,138,398,249,185,160,200,205,159,167,124,135,160,114,190,0,0,0,0,0,0,0,0,0,0,0,0,0,0,0,0,Tense,?,Since,he,first,started,"cooking,",Alan,has,enjoyed,making,pasta,most,of,all.,He,now,likes,making,desserts.,?,?,?,?,?,?,?,?,?,?,?,?,?,?,?,?
Spanish,325,39,m,Perfect_Match,m,7,Has Mark seen the film three times?,0,0,0,322,316,347,197,173,246,308,155,206,202,174,176,217,177,184,0,0,0,0,0,0,0,0,0,0,0,0,0,0,0,0,0,Tense,?,?,?,Since,last,"Friday,",Mark,has,seen,the,same,film,three,times.,He,really,loved,it.,?,?,?,?,?,?,?,?,?,?,?,?,?,?,?,?,?
Spanish,325,45,m,Perfect_Match,m,15,Did Bert want to enter into a gardening competition?,0,0,0,0,255,261,171,142,146,175,128,165,171,145,200,190,170,123,116,139,140,264,0,0,0,0,0,0,0,0,0,0,0,0,0,Tense,?,?,?,?,Since,"spring,",Bert,has,planted,many,roses,in,the,garden.,He,wanted,to,enter,into,a,gardening,competition.,?,?,?,?,?,?,?,?,?,?,?,?,?
Spanish,325,65,x,Perfect_Match,x,3,Has the aunt visited our house?,174,195,315,234,236,180,204,312,213,216,169,163,196,186,164,140,0,0,0,0,0,0,0,0,0,0,0,0,0,0,0,0,0,0,0,Tense,Since,he,moved,"in,",my,old,neighbor,has,visited,our,house.,He,brought,us,a,cake.,?,?,?,?,?,?,?,?,?,?,?,?,?,?,?,?,?,?,?
Spanish,325,68,m,Perfect_Match,m,11,Has Tom felt very unwell?,0,536,437,330,275,213,254,219,236,209,214,242,230,177,170,204,203,238,0,0,0,0,0,0,0,0,0,0,0,0,0,0,0,0,0,Tense,?,For,the,last,three,"days,",Tom,has,felt,very,unwell.,He,could,not,even,go,to,work.,?,?,?,?,?,?,?,?,?,?,?,?,?,?,?,?,?
Spanish,326,24,x,Perfect_Mismatch,x,9,Has Matt been a successful musician?,0,0,767,837,325,377,1554,263,264,754,730,293,1730,253,316,435,432,213,255,0,0,0,0,0,0,0,0,0,0,0,0,0,0,0,0,Tense,?,?,Once,many,years,"ago,",Matt,has,been,a,successful,businessman.,He,now,feels,unsatisfied,with,his,life.,?,?,?,?,?,?,?,?,?,?,?,?,?,?,?,?
Spanish,326,26,m,Perfect_Mismatch,m,21,Did Sandra think about quitting her job?,0,0,0,0,416,334,1111,204,245,410,382,262,2206,296,316,303,379,0,0,0,0,0,0,0,0,0,0,0,0,0,0,0,0,0,0,Tense,?,?,?,?,Last,"month,",Sandra,has,felt,unhappy,at,work.,She,even,thought,about,leaving.,?,?,?,?,?,?,?,?,?,?,?,?,?,?,?,?,?,?
Spanish,326,27,m,Perfect_Mismatch,m,1,Has Joe liked Mary’s old school-friends?,0,0,0,0,343,374,473,271,309,588,278,1651,491,328,259,353,296,278,210,0,0,0,0,0,0,0,0,0,0,0,0,0,0,0,0,Tense,?,?,?,?,At,"first,",Joe,has,liked,Mary’s,old,school-friends.,He,does,not,think,they,are,boring.,?,?,?,?,?,?,?,?,?,?,?,?,?,?,?,?
Spanish,326,46,x,Perfect_Mismatch,x,17,Does Paul want to go out with only one woman?,0,0,0,241,256,203,821,232,163,143,463,200,999,141,377,680,300,187,585,218,212,0,0,0,0,0,0,0,0,0,0,0,0,0,0,Tense,?,?,?,On,his,"birthday,",Paul,has,met,two,lovely,women.,He,wants,to,go,out,with,both,of,them.,?,?,?,?,?,?,?,?,?,?,?,?,?,?
Spanish,326,58,x,Perfect_Mismatch,x,5,Has James gone running every day?,0,0,0,0,630,524,369,750,221,422,477,268,1796,234,187,311,205,343,406,0,0,0,0,0,0,0,0,0,0,0,0,0,0,0,0,Tense,?,?,?,?,Last,"week,",James,has,gone,swimming,every,day.,Now,he,is,getting,bored,of,it.,?,?,?,?,?,?,?,?,?,?,?,?,?,?,?,?
Spanish,326,72,x,Perfect_Mismatch,x,13,Is Emma’s work still exciting?,293,207,280,234,391,282,1072,190,1110,300,370,300,1754,289,196,455,165,192,1088,0,0,0,0,0,0,0,0,0,0,0,0,0,0,0,0,Tense,When,she,first,started,her,"job,",Emma,has,loved,the,work,very,much.,It,is,not,very,exciting,now.,?,?,?,?,?,?,?,?,?,?,?,?,?,?,?,?
Spanish,326,3,x,Perfect_Match,x,12,Has Kate studied Russian in her spare time?,0,0,0,1638,608,1956,752,277,385,1721,328,630,1287,1668,295,336,361,388,768,1103,0,0,0,0,0,0,0,0,0,0,0,0,0,0,0,Tense,?,?,?,Since,last,"year,",Kate,has,studied,French,in,her,spare,time.,She,now,wants,to,learn,German.,?,?,?,?,?,?,?,?,?,?,?,?,?,?,?
Spanish,326,4,x,Perfect_Match,x,4,Has Sam thought Jenny was ugly?,0,1473,479,383,336,1563,243,278,1873,183,301,1480,1414,609,447,336,350,1259,891,458,637,445,0,0,0,0,0,0,0,0,0,0,0,0,0,Tense,?,Since,he,first,saw,"her,",Sam,has,thought,Jenny,was,beautiful.,"However,",he,is,far,too,nervous,to,speak,to,her.,?,?,?,?,?,?,?,?,?,?,?,?,?
Spanish,326,15,m,Perfect_Match,m,16,Was Barbara’s credit card bill enormous?,0,0,0,0,979,213,1218,271,300,446,327,1271,380,297,286,954,259,1120,0,0,0,0,0,0,0,0,0,0,0,0,0,0,0,0,0,Tense,?,?,?,?,Since,"Christmas,",Barbara,has,spent,too,much,money.,Her,credit,card,bill,was,enormous.,?,?,?,?,?,?,?,?,?,?,?,?,?,?,?,?,?
Spanish,326,52,m,Perfect_Match,x,8,Has William met his mother after work?,0,0,232,261,200,569,1319,290,282,452,578,339,485,1066,615,1676,410,368,242,246,315,424,256,403,0,0,0,0,0,0,0,0,0,0,0,Tense,?,?,For,a,year,"now,",William,has,met,his,best,friend,after,work,every,Friday.,Now,he,spends,every,night,with,his,girlfriend.,?,?,?,?,?,?,?,?,?,?,?
Spanish,326,80,m,Perfect_Match,m,24,Does Michael want to become a professional?,0,0,0,334,242,250,420,253,216,211,310,356,561,354,292,261,274,263,439,0,0,0,0,0,0,0,0,0,0,0,0,0,0,0,0,Tense,?,?,?,Since,the,"summer,",Michael,has,learnt,to,play,poker.,He,now,wants,to,become,a,professional.,?,?,?,?,?,?,?,?,?,?,?,?,?,?,?,?
Spanish,326,81,m,Perfect_Match,m,20,Did Jerry want to be a millionaire?,0,0,307,177,182,196,217,196,191,207,247,242,256,231,243,207,202,220,236,0,0,0,0,0,0,0,0,0,0,0,0,0,0,0,0,Tense,?,?,Since,he,finished,"university,",Jerry,has,thought,about,starting,a,business.,He,wanted,to,be,a,millionaire.,?,?,?,?,?,?,?,?,?,?,?,?,?,?,?,?
Spanish,327,3,m,Perfect_Mismatch,m,6,Has Brenda wanted to become an actress?,910,457,501,598,566,606,550,498,950,666,718,568,520,458,519,438,414,384,578,0,0,0,0,0,0,0,0,0,0,0,0,0,0,0,0,Tense,When,she,was,ten,years,"old,",Brenda,has,wanted,to,be,an,actress.,She,now,works,in,a,hospital.,?,?,?,?,?,?,?,?,?,?,?,?,?,?,?,?
Spanish,327,27,x,Perfect_Mismatch,x,22,Does Christine still like Gary?,0,0,0,0,382,461,657,424,493,505,599,664,449,390,448,697,635,0,0,0,0,0,0,0,0,0,0,0,0,0,0,0,0,0,0,Tense,?,?,?,?,At,"first,",Christine,has,wanted,to,marry,Gary.,Now,she,finds,him,unpleasant.,?,?,?,?,?,?,?,?,?,?,?,?,?,?,?,?,?,?
Spanish,327,33,m,Perfect_Mismatch,m,2,Has the cat eaten only fish?,0,0,0,0,751,413,382,447,491,532,651,463,407,326,351,361,0,0,0,0,0,0,0,0,0,0,0,0,0,0,0,0,0,0,0,Tense,?,?,?,?,"Initially,",the,cat,has,eaten,only,fish.,She,now,also,eats,meat.,?,?,?,?,?,?,?,?,?,?,?,?,?,?,?,?,?,?,?
Spanish,327,38,m,Perfect_Mismatch,m,10,Has Jenny wanted to escape from her life?,0,458,248,413,438,316,368,276,352,307,317,347,251,315,609,292,339,484,308,0,0,0,0,0,0,0,0,0,0,0,0,0,0,0,0,Tense,?,Before,her,baby,was,"born,",Jenny,has,wanted,to,escape,from,her,life.,She,was,very,stressed,out.,?,?,?,?,?,?,?,?,?,?,?,?,?,?,?,?
Spanish,327,67,m,Perfect_Mismatch,m,14,Did the band sell a million records?,0,0,0,0,402,338,324,705,417,393,533,362,291,446,459,410,0,0,0,0,0,0,0,0,0,0,0,0,0,0,0,0,0,0,0,Tense,?,?,?,?,"Initially,",the,band,has,been,very,successful.,They,sold,a,million,records.,?,?,?,?,?,?,?,?,?,?,?,?,?,?,?,?,?,?,?
Spanish,327,81,x,Perfect_Mismatch,x,18,Is the army a safe profession?,0,0,0,417,268,599,354,446,591,386,712,354,568,388,330,595,573,592,0,0,0,0,0,0,0,0,0,0,0,0,0,0,0,0,0,Tense,?,?,?,Many,years,"ago,",Judith,has,thought,about,joining,the,army.,It,is,a,dangerous,profession.,?,?,?,?,?,?,?,?,?,?,?,?,?,?,?,?,?
Spanish,327,10,x,Perfect_Match,x,13,Is Emma’s work still exciting?,476,333,415,465,483,620,545,517,591,486,464,398,835,394,606,372,485,549,672,0,0,0,0,0,0,0,0,0,0,0,0,0,0,0,0,Tense,Since,she,first,started,her,"job,",Emma,has,loved,the,work,very,much.,It,is,not,very,exciting,now.,?,?,?,?,?,?,?,?,?,?,?,?,?,?,?,?
Spanish,327,23,m,Perfect_Match,m,1,Has Joe liked Mary’s old school-friends?,0,0,438,331,332,337,331,304,305,278,293,636,387,525,250,488,304,405,511,0,0,0,0,0,0,0,0,0,0,0,0,0,0,0,0,Tense,?,?,Since,he,met,"them,",Joe,has,liked,Mary’s,old,school-friends.,He,does,not,think,they,are,boring.,?,?,?,?,?,?,?,?,?,?,?,?,?,?,?,?
Spanish,327,35,m,Perfect_Match,m,21,Did Sandra think about quitting her job?,0,0,388,359,363,555,598,452,517,654,770,1034,347,294,414,331,376,0,0,0,0,0,0,0,0,0,0,0,0,0,0,0,0,0,0,Tense,?,?,For,the,last,"month,",Sandra,has,felt,unhappy,at,work.,She,even,thought,about,leaving.,?,?,?,?,?,?,?,?,?,?,?,?,?,?,?,?,?,?
Spanish,327,36,x,Perfect_Match,x,17,Does Paul want to go out with only one woman?,0,0,0,346,276,426,342,432,422,328,352,351,461,249,410,328,365,358,582,306,252,0,0,0,0,0,0,0,0,0,0,0,0,0,0,Tense,?,?,?,Since,his,"birthday,",Paul,has,met,two,lovely,women.,He,wants,to,go,out,with,both,of,them.,?,?,?,?,?,?,?,?,?,?,?,?,?,?
Spanish,327,46,x,Perfect_Match,x,9,Has Matt been a successful musician?,0,0,393,312,420,353,329,611,333,511,526,285,500,468,310,517,286,294,292,0,0,0,0,0,0,0,0,0,0,0,0,0,0,0,0,Tense,?,?,Since,he,was,"twenty,",Matt,has,been,a,successful,businessman.,He,now,feels,unsatisfied,with,his,life.,?,?,?,?,?,?,?,?,?,?,?,?,?,?,?,?
Spanish,327,65,x,Perfect_Match,x,5,Has James gone running every day?,0,0,0,383,285,443,471,305,287,340,361,3371,1168,308,375,527,435,419,332,0,0,0,0,0,0,0,0,0,0,0,0,0,0,0,0,Tense,?,?,?,Since,the,"summer,",James,has,gone,swimming,every,day.,Now,he,is,getting,bored,of,it.,?,?,?,?,?,?,?,?,?,?,?,?,?,?,?,?
Spanish,328,9,m,Perfect_Mismatch,m,7,Has Mark seen the film three times?,0,0,0,0,152,146,176,165,165,171,169,173,189,158,194,161,161,193,0,0,0,0,0,0,0,0,0,0,0,0,0,0,0,0,0,Tense,?,?,?,?,Last,"Friday,",Mark,has,seen,the,same,film,three,times.,He,really,loved,it.,?,?,?,?,?,?,?,?,?,?,?,?,?,?,?,?,?
Spanish,328,21,x,Perfect_Mismatch,x,19,Does Alan like baking bread now?,0,145,161,174,162,173,164,154,149,142,165,166,155,169,164,139,162,168,157,0,0,0,0,0,0,0,0,0,0,0,0,0,0,0,0,Tense,?,When,he,first,started,"cooking,",Alan,has,enjoyed,making,pasta,most,of,all.,He,now,likes,making,desserts.,?,?,?,?,?,?,?,?,?,?,?,?,?,?,?,?
Spanish,328,35,m,Perfect_Mismatch,m,11,Has Tom felt very unwell?,0,0,0,321,166,167,182,172,528,452,397,385,377,249,215,215,248,242,0,0,0,0,0,0,0,0,0,0,0,0,0,0,0,0,0,Tense,?,?,?,Three,days,"ago,",Tom,has,felt,very,unwell.,He,could,not,even,go,to,work.,?,?,?,?,?,?,?,?,?,?,?,?,?,?,?,?,?
Spanish,328,38,x,Perfect_Mismatch,x,3,Has the aunt visited our house?,0,0,0,242,154,194,180,170,195,180,214,184,184,184,187,181,0,0,0,0,0,0,0,0,0,0,0,0,0,0,0,0,0,0,0,Tense,?,?,?,"Yesterday,",my,old,neighbor,has,visited,our,house.,He,brought,us,a,cake.,?,?,?,?,?,?,?,?,?,?,?,?,?,?,?,?,?,?,?
Spanish,328,82,x,Perfect_Mismatch,x,23,Does Ben pay the same amount for his insurance? ,0,0,0,0,136,128,143,153,159,163,145,141,153,148,147,156,158,158,171,162,176,0,0,0,0,0,0,0,0,0,0,0,0,0,0,Tense,?,?,?,?,In,"February,",Ben,has,crashed,his,car,four,times.,He,now,pays,a,lot,for,his,insurance.,?,?,?,?,?,?,?,?,?,?,?,?,?,?
Spanish,328,84,m,Perfect_Mismatch,m,15,Did Bert want to enter into a gardening competition?,0,0,0,0,195,150,168,188,192,205,186,173,181,181,173,185,173,172,158,151,152,175,0,0,0,0,0,0,0,0,0,0,0,0,0,Tense,?,?,?,?,Last,"spring,",Bert,has,planted,many,roses,in,the,garden.,He,wanted,to,enter,into,a,gardening,competition.,?,?,?,?,?,?,?,?,?,?,?,?,?
Spanish,328,1,m,Perfect_Match,m,6,Has Brenda wanted to become an actress?,341,129,205,196,172,190,182,188,192,206,207,192,299,299,156,177,188,211,185,0,0,0,0,0,0,0,0,0,0,0,0,0,0,0,0,Tense,Since,she,was,ten,years,"old,",Brenda,has,wanted,to,be,an,actress.,She,now,works,in,a,hospital.,?,?,?,?,?,?,?,?,?,?,?,?,?,?,?,?
Spanish,328,2,x,Perfect_Match,x,18,Is the army a safe profession?,0,0,178,156,185,192,172,181,169,184,179,193,191,187,183,180,177,209,0,0,0,0,0,0,0,0,0,0,0,0,0,0,0,0,0,Tense,?,?,For,many,years,"now,",Judith,has,thought,about,joining,the,army.,It,is,a,dangerous,profession.,?,?,?,?,?,?,?,?,?,?,?,?,?,?,?,?,?
Spanish,328,14,m,Perfect_Match,m,2,Has the cat eaten only fish?,0,0,112,167,152,164,213,165,151,157,188,176,172,172,164,165,0,0,0,0,0,0,0,0,0,0,0,0,0,0,0,0,0,0,0,Tense,?,?,Since,last,"week,",the,cat,has,eaten,only,fish.,She,now,also,eats,meat.,?,?,?,?,?,?,?,?,?,?,?,?,?,?,?,?,?,?,?
Spanish,328,16,m,Perfect_Match,m,10,Has Jenny wanted to escape from her life?,0,154,149,145,149,134,145,156,160,158,164,138,139,135,152,136,140,154,161,0,0,0,0,0,0,0,0,0,0,0,0,0,0,0,0,Tense,?,Since,her,baby,was,"born,",Jenny,has,wanted,to,escape,from,her,life.,She,was,very,stressed,out.,?,?,?,?,?,?,?,?,?,?,?,?,?,?,?,?
Spanish,328,18,m,Perfect_Match,m,14,Did the band sell a million records?,0,0,161,168,163,172,174,179,156,171,207,181,190,190,198,193,0,0,0,0,0,0,0,0,0,0,0,0,0,0,0,0,0,0,0,Tense,?,?,Since,the,"beginning,",the,band,has,been,very,successful.,They,sold,a,million,records.,?,?,?,?,?,?,?,?,?,?,?,?,?,?,?,?,?,?,?
Spanish,328,76,x,Perfect_Match,x,22,Does Christine still like Gary?,0,0,0,166,157,159,171,171,151,147,168,161,165,160,180,174,193,0,0,0,0,0,0,0,0,0,0,0,0,0,0,0,0,0,0,Tense,?,?,?,For,months,"now,",Christine,has,wanted,to,marry,Gary.,Now,she,finds,him,unpleasant.,?,?,?,?,?,?,?,?,?,?,?,?,?,?,?,?,?,?
Spanish,303,61,m,Past_Mismatch,m,24,Does Michael want to become a professional?,0,0,0,205,215,232,235,177,432,216,428,887,514,235,288,231,287,252,0,0,0,0,0,0,0,0,0,0,0,0,0,0,0,0,0,Tense,?,?,?,Since,the,"summer,",Michael,learnt,to,play,poker.,He,now,wants,to,become,a,professional.,?,?,?,?,?,?,?,?,?,?,?,?,?,?,?,?,?
Spanish,304,13,m,Past_Match,m,24,Does Michael want to become a professional?,0,0,0,0,363,560,701,755,381,951,1384,391,361,367,318,422,384,546,0,0,0,0,0,0,0,0,0,0,0,0,0,0,0,0,0,Tense,?,?,?,?,Last,"year,",Michael,learnt,to,play,poker.,He,now,wants,to,become,a,professional.,?,?,?,?,?,?,?,?,?,?,?,?,?,?,?,?,?
Spanish,307,13,m,Past_Mismatch,m,24,Does Michael want to become a professional?,0,0,0,582,622,458,384,371,834,435,504,362,403,426,445,407,376,476,0,0,0,0,0,0,0,0,0,0,0,0,0,0,0,0,0,Tense,?,?,?,Since,the,"summer,",Michael,learnt,to,play,poker.,He,now,wants,to,become,a,professional.,?,?,?,?,?,?,?,?,?,?,?,?,?,?,?,?,?
Spanish,308,14,m,Past_Match,m,24,Does Michael want to become a professional?,0,0,0,0,261,244,304,238,331,653,212,241,248,339,245,275,265,257,0,0,0,0,0,0,0,0,0,0,0,0,0,0,0,0,0,Tense,?,?,?,?,Last,"year,",Michael,learnt,to,play,poker.,He,now,wants,to,become,a,professional.,?,?,?,?,?,?,?,?,?,?,?,?,?,?,?,?,?
Spanish,312,70,m,Past_Match,m,24,Does Michael want to become a professional?,0,0,0,0,245,325,242,588,393,311,478,378,290,387,477,322,304,468,0,0,0,0,0,0,0,0,0,0,0,0,0,0,0,0,0,Tense,?,?,?,?,Last,"year,",Michael,learnt,to,play,poker.,He,now,wants,to,become,a,professional.,?,?,?,?,?,?,?,?,?,?,?,?,?,?,?,?,?
Spanish,315,25,m,Past_Mismatch,m,24,Does Michael want to become a professional?,0,0,0,300,389,717,423,419,382,284,347,493,199,235,377,743,251,544,0,0,0,0,0,0,0,0,0,0,0,0,0,0,0,0,0,Tense,?,?,?,Since,the,"summer,",Michael,learnt,to,play,poker.,He,now,wants,to,become,a,professional.,?,?,?,?,?,?,?,?,?,?,?,?,?,?,?,?,?
Spanish,316,77,m,Past_Match,m,24,Does Michael want to become a professional?,0,0,0,0,168,172,200,221,228,197,263,178,225,219,220,199,178,175,0,0,0,0,0,0,0,0,0,0,0,0,0,0,0,0,0,Tense,?,?,?,?,Last,"year,",Michael,learnt,to,play,poker.,He,now,wants,to,become,a,professional.,?,?,?,?,?,?,?,?,?,?,?,?,?,?,?,?,?
Spanish,319,69,m,Past_Mismatch,m,24,Does Michael want to become a professional?,0,0,0,341,284,433,1062,350,289,257,323,519,255,359,328,408,297,494,0,0,0,0,0,0,0,0,0,0,0,0,0,0,0,0,0,Tense,?,?,?,Since,the,"summer,",Michael,learnt,to,play,poker.,He,now,wants,to,become,a,professional.,?,?,?,?,?,?,?,?,?,?,?,?,?,?,?,?,?
Spanish,320,67,m,Past_Match,m,24,Does Michael want to become a professional?,0,0,0,0,130,141,146,162,152,307,181,102,414,184,159,280,163,142,0,0,0,0,0,0,0,0,0,0,0,0,0,0,0,0,0,Tense,?,?,?,?,Last,"year,",Michael,learnt,to,play,poker.,He,now,wants,to,become,a,professional.,?,?,?,?,?,?,?,?,?,?,?,?,?,?,?,?,?
Spanish,323,28,m,Past_Mismatch,m,24,Does Michael want to become a professional?,0,0,0,389,537,327,738,811,430,516,512,415,383,346,486,621,480,768,0,0,0,0,0,0,0,0,0,0,0,0,0,0,0,0,0,Tense,?,?,?,Since,the,"summer,",Michael,learnt,to,play,poker.,He,now,wants,to,become,a,professional.,?,?,?,?,?,?,?,?,?,?,?,?,?,?,?,?,?
Spanish,324,3,m,Past_Match,m,24,Does Michael want to become a professional?,0,0,0,0,625,471,563,381,412,614,608,1052,410,507,412,725,497,1047,0,0,0,0,0,0,0,0,0,0,0,0,0,0,0,0,0,Tense,?,?,?,?,Last,"year,",Michael,learnt,to,play,poker.,He,now,wants,to,become,a,professional.,?,?,?,?,?,?,?,?,?,?,?,?,?,?,?,?,?
Spanish,327,76,m,Past_Mismatch,m,24,Does Michael want to become a professional?,0,0,0,355,355,535,376,421,317,385,671,486,320,509,314,369,400,527,0,0,0,0,0,0,0,0,0,0,0,0,0,0,0,0,0,Tense,?,?,?,Since,the,"summer,",Michael,learnt,to,play,poker.,He,now,wants,to,become,a,professional.,?,?,?,?,?,?,?,?,?,?,?,?,?,?,?,?,?
Spanish,328,32,m,Past_Match,m,24,Does Michael want to become a professional?,0,0,0,0,127,149,143,149,172,173,153,149,163,161,180,153,164,154,0,0,0,0,0,0,0,0,0,0,0,0,0,0,0,0,0,Tense,?,?,?,?,Last,"year,",Michael,learnt,to,play,poker.,He,now,wants,to,become,a,professional.,?,?,?,?,?,?,?,?,?,?,?,?,?,?,?,?,?
Spanish,301,77,m,Past_Match,m,1,Did Joe like Mary’s old school-friends?,0,0,0,0,529,231,259,255,555,441,306,1069,230,252,279,254,278,314,0,0,0,0,0,0,0,0,0,0,0,0,0,0,0,0,0,Tense,?,?,?,?,At,"first,",Joe,liked,Mary’s,old,school-friends.,He,does,not,think,they,are,boring.,?,?,?,?,?,?,?,?,?,?,?,?,?,?,?,?,?
Spanish,304,23,m,Past_Mismatch,m,1,Did Joe like Mary’s old school-friends?,0,0,406,375,381,507,1186,358,423,1004,848,510,363,341,350,361,363,575,0,0,0,0,0,0,0,0,0,0,0,0,0,0,0,0,0,Tense,?,?,Since,he,met,"them,",Joe,liked,Mary’s,old,school-friends.,He,does,not,think,they,are,boring.,?,?,?,?,?,?,?,?,?,?,?,?,?,?,?,?,?
Spanish,308,23,m,Past_Mismatch,m,1,Did Joe like Mary’s old school-friends?,0,0,277,215,236,207,243,413,373,1146,729,470,341,875,274,268,313,445,0,0,0,0,0,0,0,0,0,0,0,0,0,0,0,0,0,Tense,?,?,Since,he,met,"them,",Joe,liked,Mary’s,old,school-friends.,He,does,not,think,they,are,boring.,?,?,?,?,?,?,?,?,?,?,?,?,?,?,?,?,?
Spanish,312,20,x,Past_Mismatch,m,1,Did Joe like Mary’s old school-friends?,0,0,297,241,368,636,702,1254,702,1050,1275,497,359,364,787,402,360,383,0,0,0,0,0,0,0,0,0,0,0,0,0,0,0,0,0,Tense,?,?,Since,he,met,"them,",Joe,liked,Mary’s,old,school-friends.,He,does,not,think,they,are,boring.,?,?,?,?,?,?,?,?,?,?,?,?,?,?,?,?,?
Spanish,316,48,m,Past_Mismatch,m,1,Did Joe like Mary’s old school-friends?,0,0,221,236,313,227,380,226,238,223,588,491,255,265,212,240,221,264,0,0,0,0,0,0,0,0,0,0,0,0,0,0,0,0,0,Tense,?,?,Since,he,met,"them,",Joe,liked,Mary’s,old,school-friends.,He,does,not,think,they,are,boring.,?,?,?,?,?,?,?,?,?,?,?,?,?,?,?,?,?
Spanish,320,63,m,Past_Mismatch,m,1,Did Joe like Mary’s old school-friends?,0,0,109,123,363,270,116,121,140,85,70,78,164,185,83,22,75,200,0,0,0,0,0,0,0,0,0,0,0,0,0,0,0,0,0,Tense,?,?,Since,he,met,"them,",Joe,liked,Mary’s,old,school-friends.,He,does,not,think,they,are,boring.,?,?,?,?,?,?,?,?,?,?,?,?,?,?,?,?,?
Spanish,321,64,m,Past_Match,m,1,Did Joe like Mary’s old school-friends?,0,0,0,0,633,639,510,2687,508,528,2111,436,404,425,427,441,415,871,0,0,0,0,0,0,0,0,0,0,0,0,0,0,0,0,0,Tense,?,?,?,?,At,"first,",Joe,liked,Mary’s,old,school-friends.,He,does,not,think,they,are,boring.,?,?,?,?,?,?,?,?,?,?,?,?,?,?,?,?,?
Spanish,324,67,m,Past_Mismatch,m,1,Did Joe like Mary’s old school-friends?,0,0,399,877,539,370,1250,443,502,364,1371,899,357,590,327,324,319,419,0,0,0,0,0,0,0,0,0,0,0,0,0,0,0,0,0,Tense,?,?,Since,he,met,"them,",Joe,liked,Mary’s,old,school-friends.,He,does,not,think,they,are,boring.,?,?,?,?,?,?,?,?,?,?,?,?,?,?,?,?,?
Spanish,325,67,m,Past_Match,m,1,Did Joe like Mary’s old school-friends?,0,0,0,0,295,625,372,327,461,276,267,233,260,280,215,237,209,211,0,0,0,0,0,0,0,0,0,0,0,0,0,0,0,0,0,Tense,?,?,?,?,At,"first,",Joe,liked,Mary’s,old,school-friends.,He,does,not,think,they,are,boring.,?,?,?,?,?,?,?,?,?,?,?,?,?,?,?,?,?
Spanish,328,69,m,Past_Mismatch,m,1,Did Joe like Mary’s old school-friends?,0,0,206,184,160,198,161,200,181,177,161,205,367,190,208,218,192,221,0,0,0,0,0,0,0,0,0,0,0,0,0,0,0,0,0,Tense,?,?,Since,he,met,"them,",Joe,liked,Mary’s,old,school-friends.,He,does,not,think,they,are,boring.,?,?,?,?,?,?,?,?,?,?,?,?,?,?,?,?,?
Spanish,301,78,x,Past_Match,x,13,Is Emma’s work still exciting?,398,223,262,190,253,253,278,279,239,206,245,270,505,319,288,219,209,234,0,0,0,0,0,0,0,0,0,0,0,0,0,0,0,0,0,Tense,When,she,first,started,her,"job,",Emma,loved,the,work,very,much.,It,is,not,very,exciting,now.,?,?,?,?,?,?,?,?,?,?,?,?,?,?,?,?,?
Spanish,321,48,x,Past_Match,x,13,Is Emma’s work still exciting?,1263,308,342,482,423,396,574,537,517,374,450,697,628,360,341,403,539,604,0,0,0,0,0,0,0,0,0,0,0,0,0,0,0,0,0,Tense,When,she,first,started,her,"job,",Emma,loved,the,work,very,much.,It,is,not,very,exciting,now.,?,?,?,?,?,?,?,?,?,?,?,?,?,?,?,?,?
Spanish,325,47,m,Past_Match,x,13,Is Emma’s work still exciting?,167,203,131,157,333,167,219,301,233,275,229,190,228,167,131,155,126,248,0,0,0,0,0,0,0,0,0,0,0,0,0,0,0,0,0,Tense,When,she,first,started,her,"job,",Emma,loved,the,work,very,much.,It,is,not,very,exciting,now.,?,?,?,?,?,?,?,?,?,?,?,?,?,?,?,?,?
Spanish,301,39,x,Past_Match,x,17,Does Paul want to go out with only one woman?,0,0,0,220,463,424,245,228,264,265,236,253,285,286,349,279,339,291,276,284,0,0,0,0,0,0,0,0,0,0,0,0,0,0,0,Tense,?,?,?,On,his,"birthday,",Paul,met,two,lovely,women.,He,wants,to,go,out,with,both,of,them.,?,?,?,?,?,?,?,?,?,?,?,?,?,?,?
Spanish,303,51,x,Past_Mismatch,x,8,Did William meet his mother after work?,0,0,242,216,195,180,186,597,231,241,251,348,270,304,281,992,258,269,213,293,252,348,513,0,0,0,0,0,0,0,0,0,0,0,0,Tense,?,?,For,a,year,"now,",William,met,his,best,friend,after,work,every,Friday.,Now,he,spends,every,night,with,his,girlfriend.,?,?,?,?,?,?,?,?,?,?,?,?
Spanish,304,78,x,Past_Mismatch,x,17,Does Paul want to go out with only one woman?,0,0,0,317,290,313,502,323,329,302,253,351,246,283,262,242,298,369,351,288,0,0,0,0,0,0,0,0,0,0,0,0,0,0,0,Tense,?,?,?,Since,his,"birthday,",Paul,met,two,lovely,women.,He,wants,to,go,out,with,both,of,them.,?,?,?,?,?,?,?,?,?,?,?,?,?,?,?
Spanish,304,15,x,Past_Match,x,8,Did William meet his mother after work?,0,0,0,697,371,354,371,333,362,336,365,399,372,431,592,454,1437,435,343,337,296,334,358,0,0,0,0,0,0,0,0,0,0,0,0,Tense,?,?,?,A,year,"ago,",William,met,his,best,friend,after,work,every,Friday.,Now,he,spends,every,night,with,his,girlfriend.,?,?,?,?,?,?,?,?,?,?,?,?
Spanish,307,26,x,Past_Mismatch,x,8,Did William meet his mother after work?,0,0,367,314,413,355,360,348,366,366,403,349,406,560,640,421,385,578,349,342,354,351,865,0,0,0,0,0,0,0,0,0,0,0,0,Tense,?,?,For,a,year,"now,",William,met,his,best,friend,after,work,every,Friday.,Now,he,spends,every,night,with,his,girlfriend.,?,?,?,?,?,?,?,?,?,?,?,?
Spanish,308,64,x,Past_Mismatch,x,17,Does Paul want to go out with only one woman?,0,0,0,184,190,213,370,169,209,208,199,188,210,197,182,176,199,188,194,177,0,0,0,0,0,0,0,0,0,0,0,0,0,0,0,Tense,?,?,?,Since,his,"birthday,",Paul,met,two,lovely,women.,He,wants,to,go,out,with,both,of,them.,?,?,?,?,?,?,?,?,?,?,?,?,?,?,?
Spanish,308,46,x,Past_Match,x,8,Did William meet his mother after work?,0,0,0,372,194,222,199,211,234,221,215,181,244,254,330,712,179,226,244,205,405,267,747,0,0,0,0,0,0,0,0,0,0,0,0,Tense,?,?,?,A,year,"ago,",William,met,his,best,friend,after,work,every,Friday.,Now,he,spends,every,night,with,his,girlfriend.,?,?,?,?,?,?,?,?,?,?,?,?
Spanish,312,13,x,Past_Mismatch,x,17,Does Paul want to go out with only one woman?,0,0,0,306,276,332,401,348,330,340,381,367,275,335,316,345,315,366,357,347,0,0,0,0,0,0,0,0,0,0,0,0,0,0,0,Tense,?,?,?,Since,his,"birthday,",Paul,met,two,lovely,women.,He,wants,to,go,out,with,both,of,them.,?,?,?,?,?,?,?,?,?,?,?,?,?,?,?
Spanish,312,15,x,Past_Match,x,8,Did William meet his mother after work?,0,0,0,430,217,255,469,288,274,282,254,253,273,267,270,525,284,251,298,240,279,339,350,0,0,0,0,0,0,0,0,0,0,0,0,Tense,?,?,?,A,year,"ago,",William,met,his,best,friend,after,work,every,Friday.,Now,he,spends,every,night,with,his,girlfriend.,?,?,?,?,?,?,?,?,?,?,?,?
Spanish,315,46,x,Past_Mismatch,x,8,Did William meet his mother after work?,0,0,342,447,185,251,803,227,147,539,321,233,291,308,413,329,305,294,326,306,406,288,404,0,0,0,0,0,0,0,0,0,0,0,0,Tense,?,?,For,a,year,"now,",William,met,his,best,friend,after,work,every,Friday.,Now,he,spends,every,night,with,his,girlfriend.,?,?,?,?,?,?,?,?,?,?,?,?
Spanish,316,25,x,Past_Mismatch,x,17,Does Paul want to go out with only one woman?,0,0,0,260,234,251,259,242,232,238,229,269,247,286,249,252,198,196,258,278,0,0,0,0,0,0,0,0,0,0,0,0,0,0,0,Tense,?,?,?,Since,his,"birthday,",Paul,met,two,lovely,women.,He,wants,to,go,out,with,both,of,them.,?,?,?,?,?,?,?,?,?,?,?,?,?,?,?
Spanish,316,46,x,Past_Match,x,8,Did William meet his mother after work?,0,0,0,297,190,227,226,217,192,204,234,219,218,238,252,245,252,236,212,220,232,290,360,0,0,0,0,0,0,0,0,0,0,0,0,Tense,?,?,?,A,year,"ago,",William,met,his,best,friend,after,work,every,Friday.,Now,he,spends,every,night,with,his,girlfriend.,?,?,?,?,?,?,?,?,?,?,?,?
