Group,Participant,Trial,Response,Condition,Correct,q1,S1.RT,S2.RT,X5V,X4V,X3V,X2V,X1V,V,V1,V2,V3,V4,V5,S14.RT,S15.RT,S16.RT,S17.RT,S18.RT,S19.RT,S20.RT,S21.RT,S22.RT,S23.RT,S24.RT,S25.RT,S26.RT,S27.RT,S28.RT,S29.RT,S30.RT,S31.RT,S32.RT,S33.RT,S34.RT,S35.RT,Study,Item,w1,w2,X5V,X4V,X3V,X2V,X1V,V,V1,V2,V3,V4,V5,w14,w15,w16,w17,w18,w19,w20,w21,w22,w23,w24,w25,w26,w27,w28,w29,w30,w31,w32,w33,w34,w35
German,101,6,x,Perfect_Mismatch,x,Has Kate studied Russian in her spare time?,,,,,310,278,209,280,407,232,382,205,268,271,269,232,208,203,213,226,0,0,0,,,,,,,,,,,,,Tense,12,,,,,Last,"year,",Kate,has,studied,French,in,her,spare,time.,She,now,wants,to,learn,German.,,,,,,,,,,,,,,,
German,101,7,m,Perfect_Mismatch,m,Was Barbara’s credit card bill enormous?,,,,,239,223,234,218,207,232,215,301,282,239,237,234,232,205,0,0,0,,,,,,,,,,,,,,,Tense,16,,,,,At,"Christmas,",Barbara,has,spent,too,much,money.,Her,credit,card,bill,was,enormous.,,,,,,,,,,,,,,,,,
German,101,36,x,Perfect_Mismatch,x,Has Sam thought Jenny was ugly?,,,196,174,165,173,178,170,195,222,422,227,180,233,255,201,216,181,195,175,183,200,,,,,,,,,,,,,,Tense,4,,,When,he,saw,"her,",Sam,has,thought,Jenny,was,beautiful.,"However,",he,is,far,too,nervous,to,speak,to,her.,?,,,,,,,,,,,,
German,101,44,x,Perfect_Mismatch,x,Has William met his mother after work?,,,,171,168,176,164,147,178,160,176,162,170,168,170,200,187,178,193,201,207,174,143,210,,,,,,,,,,,,Tense,8,,,,A,year,"ago,",William,has,met,his,best,friend,after,work,every,Friday.,Now,he,spends,every,night,with,his,girlfriend.,,,,,,,,,,,
German,101,61,m,Perfect_Mismatch,m,Did Jerry want to be a millionaire?,,,271,210,206,197,179,183,209,175,167,209,389,220,143,151,215,599,214,,,,,,,,,,,,,,,,,Tense,20,,,When,he,finished,"university,",Jerry,has,thought,about,starting,a,business.,He,wanted,to,be,a,millionaire.,,,,,,,,,,,,,,,,
German,101,78,m,Perfect_Mismatch,m,Does Michael want to become a professional?,,,,,242,174,208,171,194,153,179,175,371,219,222,211,169,136,220,,,,,,,,,,,,,,,,,Tense,24,,,,,Last,"year,",Michael,has,learnt,to,play,poker.,He,now,wants,to,become,a,professional.,,,,,,,,,,,,,,,,
German,101,25,m,Perfect_Match,m,Has Tom felt very unwell?,,271,242,235,234,253,247,233,204,199,190,253,221,161,199,147,195,192,,,,,,,,,,,,,,,,,,Tense,11,,For,the,last,three,"days,",Tom,has,felt,very,unwell.,He,could,not,even,go,to,work.,,,,,,,,,,,,,,,,,
German,101,26,m,Perfect_Match,m,Has Mark seen the film three times?,,,,231,250,141,151,237,211,176,178,190,182,223,189,234,170,156,,,,,,,,,,,,,,,,,,Tense,7,,,,Since,last,"Friday,",Mark,has,seen,the,same,film,three,times.,He,really,loved,it.,,,,,,,,,,,,,,,,,
German,101,34,x,Perfect_Match,x,Does Alan like baking bread now?,,355,131,363,252,182,187,159,169,185,171,272,179,165,142,163,161,151,182,,,,,,,,,,,,,,,,,Tense,19,,Since,he,first,started,"cooking,",Alan,has,enjoyed,making,pasta,most,of,all.,He,now,likes,making,desserts.,,,,,,,,,,,,,,,,
German,101,42,x,Perfect_Match,x,Does Ben pay the same amount for his insurance? ,,,,,211,177,197,142,186,144,183,165,187,167,191,173,128,163,171,145,179,,,,,,,,,,,,,,,Tense,23,,,,,Since,"February,",Ben,has,crashed,his,car,four,times.,He,now,pays,a,lot,for,his,insurance.,,,,,,,,,,,,,,
German,101,52,m,Perfect_Match,m,Did Bert want to enter into a gardening competition?,,,,,237,203,177,219,225,203,200,200,172,166,177,134,218,260,234,430,200,290,,,,,,,,,,,,,,Tense,15,,,,,Since,"spring,",Bert,has,planted,many,roses,in,the,garden.,He,wanted,to,enter,into,a,gardening,competition.,,,,,,,,,,,,,
German,101,73,x,Perfect_Match,x,Has the aunt visited our house?,183,177,348,258,229,231,188,184,151,177,169,187,222,196,177,157,,,,,,,,,,,,,,,,,,,,Tense,3,Since,he,moved,"in,",my,old,neighbor,has,visited,our,house.,He,brought,us,a,cake.,,,,,,,,,,,,,,,,,,,
German,101,2,m,Past_Mismatch,m,Did Jenny want to escape from her life?,,246,239,260,328,263,316,276,261,282,321,282,273,461,210,295,231,238,,,,,,,,,,,,,,,,,,Tense,10,,Since,her,baby,was,"born,",Jenny,wanted,to,escape,from,her,life.,She,was,very,stressed,out.,,,,,,,,,,,,,,,,,
German,101,19,m,Past_Mismatch,m,Did the band sell a million records?,,,172,194,179,209,240,332,223,252,367,191,177,176,188,,,,,,,,,,,,,,,,,,,,,Tense,14,,,Since,the,"beginning,",the,band,was,very,successful.,They,sold,a,million,records.,,,,,,,,,,,,,,,,,,,,
German,101,40,m,Past_Mismatch,m,Did Brenda want to become an actress?,238,264,214,214,215,214,254,219,212,168,200,171,256,190,213,192,250,172,,,,,,,,,,,,,,,,,,Tense,6,Since,she,was,ten,years,"old,",Brenda,wanted,to,be,an,actress.,She,now,works,in,a,hospital.,,,,,,,,,,,,,,,,,
German,101,51,m,Past_Mismatch,m,Did the cat eat only fish?,,,167,167,162,179,135,116,174,186,172,159,151,147,159,,,,,,,,,,,,,,,,,,,,,Tense,2,,,Since,last,"week,",the,cat,ate,only,fish.,She,now,also,eats,meat.,,,,,,,,,,,,,,,,,,,,
German,101,56,x,Past_Mismatch,x,Does Christine still like Gary?,,,,309,187,176,153,179,161,210,176,181,171,196,163,208,,,,,,,,,,,,,,,,,,,,Tense,22,,,,For,months,"now,",Christine,wanted,to,marry,Gary.,Now,she,finds,him,unpleasant.,,,,,,,,,,,,,,,,,,,
German,101,69,x,Past_Mismatch,x,Is the army a safe profession?,,,176,300,274,155,157,202,156,216,166,191,194,183,192,149,240,,,,,,,,,,,,,,,,,,,Tense,18,,,For,many,years,"now,",Judith,thought,about,joining,the,army.,It,is,a,dangerous,profession.,,,,,,,,,,,,,,,,,,
German,101,17,m,Past_Match,m,Did Sandra think about quitting her job?,,,,,219,221,213,211,220,206,246,230,211,212,264,200,0,,,,,,,,,,,,,,,,,,,Tense,21,,,,,Last,"month,",Sandra,felt,unhappy,at,work.,She,even,thought,about,leaving.,,,,,,,,,,,,,,,,,,,
German,101,21,x,Past_Match,x,Was Matt a successful musician?,,,244,312,187,197,195,192,251,218,201,310,316,232,48,627,280,249,,,,,,,,,,,,,,,,,,Tense,9,,,Once,many,years,"ago,",Matt,was,a,successful,businessman.,He,now,feels,unsatisfied,with,his,life.,,,,,,,,,,,,,,,,,
German,101,53,x,Past_Match,x,Does Paul want to go out with only one woman?,,,,235,187,187,154,157,202,178,166,176,184,181,135,142,174,187,185,170,,,,,,,,,,,,,,,,Aspect,17,,,,On,his,"birthday,",Paul,met,two,lovely,women.,He,wants,to,go,out,with,both,of,them.,,,,,,,,,,,,,,,
German,101,60,m,Past_Match,m,Did Joe like Mary’s old school-friends?,,,,,192,205,168,181,153,173,164,161,109,256,175,196,209,198,,,,,,,,,,,,,,,,,,Tense,1,,,,,At,"first,",Joe,liked,Mary’s,old,school-friends.,He,does,not,think,they,are,boring.,,,,,,,,,,,,,,,,,
German,101,65,x,Past_Match,x,Is Emma’s work still exciting?,238,202,168,344,213,200,161,182,200,210,217,220,246,180,200,169,249,227,,,,,,,,,,,,,,,,,,Tense,13,When,she,first,started,her,"job,",Emma,loved,the,work,very,much.,It,is,not,very,exciting,now.,,,,,,,,,,,,,,,,,
German,101,66,x,Past_Match,x,Did James go running every day?,,,,,231,185,154,188,153,114,194,104,153,218,168,158,202,343,,,,,,,,,,,,,,,,,,Tense,5,,,,,Last,"week,",James,went,swimming,every,day.,Now,he,is,getting,bored,of,it.,,,,,,,,,,,,,,,,,
German,103,26,m,Perfect_Mismatch,m,Has the cat eaten only fish?,0,0,0,0,504,389,325,337,760,489,588,388,460,403,329,404,0,0,0,0,0,0,0,0,0,0,0,0,0,0,0,0,0,0,0,Tense,2,?,?,?,?,"Initially,",the,cat,has,eaten,only,fish.,She,now,also,eats,meat.,?,?,?,?,?,?,?,?,?,?,?,?,?,?,?,?,?,?,?
German,103,27,m,Perfect_Mismatch,m,Has Jenny wanted to escape from her life?,0,515,587,593,329,333,354,299,360,573,310,359,350,379,447,320,291,392,362,0,0,0,0,0,0,0,0,0,0,0,0,0,0,0,0,Tense,10,?,Before,her,baby,was,"born,",Jenny,has,wanted,to,escape,from,her,life.,She,was,very,stressed,out.,?,?,?,?,?,?,?,?,?,?,?,?,?,?,?,?
German,103,31,x,Perfect_Mismatch,x,Does Christine still like Gary?,0,0,0,0,370,342,741,301,310,361,445,400,360,346,413,366,489,0,0,0,0,0,0,0,0,0,0,0,0,0,0,0,0,0,0,Tense,22,?,?,?,?,At,"first,",Christine,has,wanted,to,marry,Gary.,Now,she,finds,him,unpleasant.,?,?,?,?,?,?,?,?,?,?,?,?,?,?,?,?,?,?
German,103,42,m,Perfect_Mismatch,m,Did the band sell a million records?,0,0,0,0,575,341,286,825,310,392,471,402,560,254,346,315,0,0,0,0,0,0,0,0,0,0,0,0,0,0,0,0,0,0,0,Tense,14,?,?,?,?,"Initially,",the,band,has,been,very,successful.,They,sold,a,million,records.,?,?,?,?,?,?,?,?,?,?,?,?,?,?,?,?,?,?,?
German,103,69,m,Perfect_Mismatch,m,Has Brenda wanted to become an actress?,268,275,276,205,460,393,412,326,283,537,399,361,281,324,259,313,239,292,678,0,0,0,0,0,0,0,0,0,0,0,0,0,0,0,0,Tense,6,When,she,was,ten,years,"old,",Brenda,has,wanted,to,be,an,actress.,She,now,works,in,a,hospital.,?,?,?,?,?,?,?,?,?,?,?,?,?,?,?,?
German,103,76,x,Perfect_Mismatch,x,Is the army a safe profession?,0,0,0,202,234,284,264,240,227,330,260,249,245,223,236,213,214,227,0,0,0,0,0,0,0,0,0,0,0,0,0,0,0,0,0,Tense,18,?,?,?,Many,years,"ago,",Judith,has,thought,about,joining,the,army.,It,is,a,dangerous,profession.,?,?,?,?,?,?,?,?,?,?,?,?,?,?,?,?,?
German,103,7,x,Perfect_Match,x,Has Matt been a successful musician?,0,0,513,505,420,422,410,566,328,417,440,415,519,373,407,482,452,433,542,0,0,0,0,0,0,0,0,0,0,0,0,0,0,0,0,Tense,9,?,?,Since,he,was,"twenty,",Matt,has,been,a,successful,businessman.,He,now,feels,unsatisfied,with,his,life.,?,?,?,?,?,?,?,?,?,?,?,?,?,?,?,?
German,103,47,x,Perfect_Match,x,Has James gone running every day?,0,0,0,348,283,391,318,321,338,315,327,367,331,343,339,354,291,317,243,0,0,0,0,0,0,0,0,0,0,0,0,0,0,0,0,Tense,5,?,?,?,Since,the,"summer,",James,has,gone,swimming,every,day.,Now,he,is,getting,bored,of,it.,?,?,?,?,?,?,?,?,?,?,?,?,?,?,?,?
German,103,50,m,Perfect_Match,m,Has Joe liked Mary’s old school-friends?,0,0,340,405,351,332,293,317,289,362,301,611,323,368,308,316,280,349,374,0,0,0,0,0,0,0,0,0,0,0,0,0,0,0,0,Tense,1,?,?,Since,he,met,"them,",Joe,has,liked,Mary’s,old,school-friends.,He,does,not,think,they,are,boring.,?,?,?,?,?,?,?,?,?,?,?,?,?,?,?,?
German,103,65,x,Perfect_Match,x,Does Paul want to go out with only one woman?,0,0,0,269,295,265,269,281,617,316,252,297,318,279,257,270,280,289,262,305,258,0,0,0,0,0,0,0,0,0,0,0,0,0,0,Tense,17,?,?,?,Since,his,"birthday,",Paul,has,met,two,lovely,women.,He,wants,to,go,out,with,both,of,them.,?,?,?,?,?,?,?,?,?,?,?,?,?,?
German,103,80,m,Perfect_Match,m,Did Sandra think about quitting her job?,0,0,423,396,654,349,455,433,287,355,262,288,260,228,356,327,262,0,0,0,0,0,0,0,0,0,0,0,0,0,0,0,0,0,0,Tense,21,?,?,For,the,last,"month,",Sandra,has,felt,unhappy,at,work.,She,even,thought,about,leaving.,?,?,?,?,?,?,?,?,?,?,?,?,?,?,?,?,?,?
German,103,82,x,Perfect_Match,x,Is Emma’s work still exciting?,251,229,275,212,332,261,240,280,278,298,238,527,236,323,282,257,248,248,280,0,0,0,0,0,0,0,0,0,0,0,0,0,0,0,0,Tense,13,Since,she,first,started,her,"job,",Emma,has,loved,the,work,very,much.,It,is,not,very,exciting,now.,?,?,?,?,?,?,?,?,?,?,?,?,?,?,?,?
German,103,6,m,Past_Mismatch,m,Did Jerry want to be a millionaire?,0,0,501,623,393,389,534,468,452,498,430,411,484,415,431,343,382,478,0,0,0,0,0,0,0,0,0,0,0,0,0,0,0,0,0,Tense,20,?,?,Since,he,finished,"university,",Jerry,thought,about,starting,a,business.,He,wanted,to,be,a,millionaire.,?,?,?,?,?,?,?,?,?,?,?,?,?,?,?,?,?
German,103,15,m,Past_Mismatch,m,Does Michael want to become a professional?,0,0,0,424,406,413,452,379,560,428,406,400,336,352,361,323,365,553,0,0,0,0,0,0,0,0,0,0,0,0,0,0,0,0,0,Tense,24,?,?,?,Since,the,"summer,",Michael,learnt,to,play,poker.,He,now,wants,to,become,a,professional.,?,?,?,?,?,?,?,?,?,?,?,?,?,?,?,?,?
German,103,19,x,Past_Mismatch,x,Did William meet his mother after work?,0,0,490,400,367,403,734,489,470,425,733,437,452,373,383,460,335,561,366,371,438,432,668,0,0,0,0,0,0,0,0,0,0,0,0,Tense,8,?,?,For,a,year,"now,",William,met,his,best,friend,after,work,every,Friday.,Now,he,spends,every,night,with,his,girlfriend.,?,?,?,?,?,?,?,?,?,?,?,?
German,103,44,x,Past_Mismatch,x,Did Sam think Jenny was ugly?,0,348,301,318,308,295,312,385,315,319,322,374,334,354,355,369,311,332,332,299,314,0,0,0,0,0,0,0,0,0,0,0,0,0,0,Tense,4,?,Since,he,first,saw,"her,",Sam,thought,Jenny,was,beautiful.,"However,",he,is,far,too,nervous,to,speak,to,her.,?,?,?,?,?,?,?,?,?,?,?,?,?,?
German,103,53,x,Past_Mismatch,x,Did Kate study Russian in her spare time?,0,0,0,345,458,341,391,358,305,394,341,475,317,373,308,342,295,306,293,0,0,0,0,0,0,0,0,0,0,0,0,0,0,0,0,Tense,12,?,?,?,Since,last,"year,",Kate,studied,French,in,her,spare,time.,She,now,wants,to,learn,German.,?,?,?,?,?,?,?,?,?,?,?,?,?,?,?,?
German,103,81,m,Past_Mismatch,m,Was Barbara’s credit card bill enormous?,0,0,0,0,272,277,271,330,268,242,278,295,418,244,240,296,241,0,0,0,0,0,0,0,0,0,0,0,0,0,0,0,0,0,0,Tense,16,?,?,?,?,Since,"Christmas,",Barbara,spent,too,much,money.,Her,credit,card,bill,was,enormous.,?,?,?,?,?,?,?,?,?,?,?,?,?,?,?,?,?,?
German,103,23,m,Past_Match,m,Did Bert want to enter into a gardening competition?,0,0,0,0,701,1392,541,568,910,578,572,448,402,382,393,359,353,392,369,385,507,0,0,0,0,0,0,0,0,0,0,0,0,0,0,Tense,15,?,?,?,?,Last,"spring,",Bert,planted,many,roses,in,the,garden.,He,wanted,to,enter,into,a,gardening,competition.,?,?,?,?,?,?,?,?,?,?,?,?,?,?
German,103,40,x,Past_Match,x,Did the aunt visit our house?,0,0,0,757,676,522,415,562,443,305,410,366,365,345,301,0,0,0,0,0,0,0,0,0,0,0,0,0,0,0,0,0,0,0,0,Tense,3,?,?,?,"Yesterday,",my,old,neighbor,visited,our,house.,He,brought,us,a,cake.,?,?,?,?,?,?,?,?,?,?,?,?,?,?,?,?,?,?,?,?
German,103,49,x,Past_Match,x,Does Alan like baking bread now?,0,0,0,0,429,311,377,380,386,315,437,344,345,400,348,346,376,296,330,390,386,0,0,0,0,0,0,0,0,0,0,0,0,0,0,Tense,13,?,?,?,?,When,he,first,started,"cooking,",Alan,enjoyed,making,pasta,most,of,all.,He,now,likes,making,desserts.,?,?,?,?,?,?,?,?,?,?,?,?,?,?
German,103,56,m,Past_Match,m,Did Mark see the film three times?,0,0,0,0,403,334,336,401,296,313,272,426,336,392,279,296,316,0,0,0,0,0,0,0,0,0,0,0,0,0,0,0,0,0,0,Tense,7,?,?,?,?,Last,"Friday,",Mark,saw,the,same,film,three,times.,He,really,loved,it.,?,?,?,?,?,?,?,?,?,?,?,?,?,?,?,?,?,?
German,103,61,x,Past_Match,x,Does Ben pay the same amount for his insurance? ,0,0,0,0,371,388,389,715,402,382,495,711,603,358,299,312,280,343,306,428,0,0,0,0,0,0,0,0,0,0,0,0,0,0,0,Tense,23,?,?,?,?,In,"February,",Ben,crashed,his,car,four,times.,He,now,pays,a,lot,for,his,insurance.,?,?,?,?,?,?,?,?,?,?,?,?,?,?,?
German,103,68,m,Past_Match,m,Did Tom feel very unwell?,0,0,0,286,197,222,293,459,218,588,291,231,224,259,667,208,345,0,0,0,0,0,0,0,0,0,0,0,0,0,0,0,0,0,0,Tense,11,?,?,?,Three,days,"ago,",Tom,felt,very,unwell.,He,could,not,even,go,to,work.,?,?,?,?,?,?,?,?,?,?,?,?,?,?,?,?,?,?
German,104,21,x,Perfect_Mismatch,x,Does Alan like baking bread now?,0,836,678,796,855,806,849,662,873,791,686,658,805,991,725,660,638,693,769,0,0,0,0,0,0,0,0,0,0,0,0,0,0,0,0,Tense,19,?,When,he,first,started,"cooking,",Alan,has,enjoyed,making,pasta,most,of,all.,He,now,likes,making,desserts.,?,?,?,?,?,?,?,?,?,?,?,?,?,?,?,?
German,104,40,m,Perfect_Mismatch,m,Has Tom felt very unwell?,0,0,0,598,721,961,604,592,680,782,892,706,744,556,595,709,641,1443,0,0,0,0,0,0,0,0,0,0,0,0,0,0,0,0,0,Tense,11,?,?,?,Three,days,"ago,",Tom,has,felt,very,unwell.,He,could,not,even,go,to,work.,?,?,?,?,?,?,?,?,?,?,?,?,?,?,?,?,?
German,104,62,m,Perfect_Mismatch,m,Has Mark seen the film three times?,0,0,0,0,518,603,634,529,588,609,624,603,574,905,578,558,583,791,0,0,0,0,0,0,0,0,0,0,0,0,0,0,0,0,0,Tense,7,?,?,?,?,Last,"Friday,",Mark,has,seen,the,same,film,three,times.,He,really,loved,it.,?,?,?,?,?,?,?,?,?,?,?,?,?,?,?,?,?
German,104,68,m,Perfect_Mismatch,m,Did Bert want to enter into a gardening competition?,0,0,0,0,504,686,656,568,555,519,693,684,500,909,550,425,577,485,578,597,598,697,0,0,0,0,0,0,0,0,0,0,0,0,0,Tense,15,?,?,?,?,Last,"spring,",Bert,has,planted,many,roses,in,the,garden.,He,wanted,to,enter,into,a,gardening,competition.,?,?,?,?,?,?,?,?,?,?,?,?,?
German,104,70,x,Perfect_Mismatch,x,Does Ben pay the same amount for his insurance? ,0,0,0,0,634,666,566,529,638,527,601,547,809,580,541,579,524,577,625,491,1168,0,0,0,0,0,0,0,0,0,0,0,0,0,0,Tense,23,?,?,?,?,In,"February,",Ben,has,crashed,his,car,four,times.,He,now,pays,a,lot,for,his,insurance.,?,?,?,?,?,?,?,?,?,?,?,?,?,?
German,104,74,x,Perfect_Mismatch,x,Has the aunt visited our house?,0,0,0,604,602,689,578,603,658,656,903,613,561,473,579,714,0,0,0,0,0,0,0,0,0,0,0,0,0,0,0,0,0,0,0,Tense,3,?,?,?,"Yesterday,",my,old,neighbor,has,visited,our,house.,He,brought,us,a,cake.,?,?,?,?,?,?,?,?,?,?,?,?,?,?,?,?,?,?,?
German,104,4,x,Perfect_Match,m,Has the cat eaten only fish?,0,0,806,872,817,923,847,905,800,842,880,917,701,787,784,1103,0,0,0,0,0,0,0,0,0,0,0,0,0,0,0,0,0,0,0,Tense,2,?,?,Since,last,"week,",the,cat,has,eaten,only,fish.,She,now,also,eats,meat.,?,?,?,?,?,?,?,?,?,?,?,?,?,?,?,?,?,?,?
German,104,30,m,Perfect_Match,m,Has Jenny wanted to escape from her life?,0,705,704,577,709,824,703,619,801,662,673,723,788,1530,643,621,665,718,1054,0,0,0,0,0,0,0,0,0,0,0,0,0,0,0,0,Tense,10,?,Since,her,baby,was,"born,",Jenny,has,wanted,to,escape,from,her,life.,She,was,very,stressed,out.,?,?,?,?,?,?,?,?,?,?,?,?,?,?,?,?
German,104,58,x,Perfect_Match,x,Does Christine still like Gary?,0,0,0,600,703,696,675,970,666,637,696,824,748,682,640,621,756,0,0,0,0,0,0,0,0,0,0,0,0,0,0,0,0,0,0,Tense,22,?,?,?,For,months,"now,",Christine,has,wanted,to,marry,Gary.,Now,she,finds,him,unpleasant.,?,?,?,?,?,?,?,?,?,?,?,?,?,?,?,?,?,?
German,104,77,x,Perfect_Match,x,Is the army a safe profession?,0,0,744,537,539,525,757,606,501,549,498,574,898,650,539,637,570,679,0,0,0,0,0,0,0,0,0,0,0,0,0,0,0,0,0,Tense,18,?,?,For,many,years,"now,",Judith,has,thought,about,joining,the,army.,It,is,a,dangerous,profession.,?,?,?,?,?,?,?,?,?,?,?,?,?,?,?,?,?
German,104,79,m,Perfect_Match,m,Has Brenda wanted to become an actress?,480,534,548,573,557,532,566,531,603,719,484,594,856,526,667,595,557,475,1167,0,0,0,0,0,0,0,0,0,0,0,0,0,0,0,0,Tense,6,Since,she,was,ten,years,"old,",Brenda,has,wanted,to,be,an,actress.,She,now,works,in,a,hospital.,?,?,?,?,?,?,?,?,?,?,?,?,?,?,?,?
German,104,82,m,Perfect_Match,m,Did the band sell a million records?,0,0,580,535,529,592,491,471,553,457,994,464,544,485,538,671,0,0,0,0,0,0,0,0,0,0,0,0,0,0,0,0,0,0,0,Tense,14,?,?,Since,the,"beginning,",the,band,has,been,very,successful.,They,sold,a,million,records.,?,?,?,?,?,?,?,?,?,?,?,?,?,?,?,?,?,?,?
German,104,3,x,Past_Mismatch,x,Was Matt a successful musician?,0,0,927,735,821,829,792,770,873,798,1240,943,768,859,858,747,795,836,0,0,0,0,0,0,0,0,0,0,0,0,0,0,0,0,0,Tense,9,?,?,Since,he,was,"twenty,",Matt,was,a,successful,businessman.,He,now,feels,unsatisfied,with,his,life.,?,?,?,?,?,?,?,?,?,?,?,?,?,?,?,?,?
German,104,7,x,Past_Mismatch,x,Does Paul want to go out with only one woman?,0,0,0,858,945,1252,1490,1012,980,836,2906,728,736,712,745,733,778,737,653,1084,0,0,0,0,0,0,0,0,0,0,0,0,0,0,0,Tense,17,?,?,?,Since,his,"birthday,",Paul,met,two,lovely,women.,He,wants,to,go,out,with,both,of,them.,?,?,?,?,?,?,?,?,?,?,?,?,?,?,?
German,104,35,x,Past_Mismatch,x,Is Emma’s work still exciting?,0,0,0,0,754,710,673,636,738,690,1523,694,724,856,781,821,960,679,695,737,665,830,0,0,0,0,0,0,0,0,0,0,0,0,0,Tense,13,?,?,?,?,Since,she,first,started,her,"job,",Emma,loved,the,work,very,much.,It,is,not,very,exciting,now.,?,?,?,?,?,?,?,?,?,?,?,?,?
German,104,36,m,Past_Mismatch,m,Did Joe like Mary’s old school-friends?,0,0,655,608,677,883,686,691,607,714,943,544,610,611,612,602,723,834,0,0,0,0,0,0,0,0,0,0,0,0,0,0,0,0,0,Tense,1,?,?,Since,he,met,"them,",Joe,liked,Mary’s,old,school-friends.,He,does,not,think,they,are,boring.,?,?,?,?,?,?,?,?,?,?,?,?,?,?,?,?,?
German,104,52,m,Past_Mismatch,m,Did Sandra think about quitting her job?,0,0,675,580,613,645,674,601,786,676,1032,693,618,707,755,1031,0,0,0,0,0,0,0,0,0,0,0,0,0,0,0,0,0,0,0,Tense,21,?,?,For,the,last,"month,",Sandra,felt,unhappy,at,work.,She,even,thought,about,leaving.,?,?,?,?,?,?,?,?,?,?,?,?,?,?,?,?,?,?,?
German,104,67,x,Past_Mismatch,x,Did James go running every day?,0,0,0,754,619,899,553,718,673,665,1445,516,594,581,630,1256,618,937,0,0,0,0,0,0,0,0,0,0,0,0,0,0,0,0,0,Tense,5,?,?,?,Since,the,"summer,",James,went,swimming,every,day.,Now,he,is,getting,bored,of,it.,?,?,?,?,?,?,?,?,?,?,?,?,?,?,?,?,?
German,104,10,m,Past_Match,m,Was Barbara’s credit card bill enormous?,0,0,0,0,779,1035,746,694,779,1094,977,774,662,676,856,851,953,0,0,0,0,0,0,0,0,0,0,0,0,0,0,0,0,0,0,Tense,16,?,?,?,?,At,"Christmas,",Barbara,spent,too,much,money.,Her,credit,card,bill,was,enormous.,?,?,?,?,?,?,?,?,?,?,?,?,?,?,?,?,?,?
German,104,32,x,Past_Match,x,Did William meet his mother after work?,0,0,0,778,756,900,645,762,814,766,686,732,917,1162,792,724,600,699,684,636,653,691,749,0,0,0,0,0,0,0,0,0,0,0,0,Tense,8,?,?,?,A,year,"ago,",William,met,his,best,friend,after,work,every,Friday.,Now,he,spends,every,night,with,his,girlfriend.,?,?,?,?,?,?,?,?,?,?,?,?
German,104,60,x,Past_Match,x,Did Sam think Jenny was ugly?,0,0,794,697,674,767,841,600,647,509,938,624,881,558,633,834,611,653,626,600,1137,0,0,0,0,0,0,0,0,0,0,0,0,0,0,Tense,4,?,?,When,he,saw,"her,",Sam,thought,Jenny,was,beautiful.,"However,",he,is,far,too,nervous,to,speak,to,her.,?,?,?,?,?,?,?,?,?,?,?,?,?,?
German,104,61,x,Past_Match,x,Did Kate study Russian in her spare time?,0,0,0,0,792,740,695,696,665,635,682,602,1080,541,569,605,601,580,860,0,0,0,0,0,0,0,0,0,0,0,0,0,0,0,0,Tense,12,?,?,?,?,Last,"year,",Kate,studied,French,in,her,spare,time.,She,now,wants,to,learn,German.,?,?,?,?,?,?,?,?,?,?,?,?,?,?,?,?
German,104,78,m,Past_Match,m,Does Michael want to become a professional?,0,0,0,0,509,519,629,647,596,596,918,635,668,516,554,563,552,840,0,0,0,0,0,0,0,0,0,0,0,0,0,0,0,0,0,Tense,24,?,?,?,?,Last,"year,",Michael,learnt,to,play,poker.,He,now,wants,to,become,a,professional.,?,?,?,?,?,?,?,?,?,?,?,?,?,?,?,?,?
German,104,84,m,Past_Match,m,Did Jerry want to be a millionaire?,0,0,660,614,592,700,661,558,763,539,498,828,626,788,410,511,482,902,0,0,0,0,0,0,0,0,0,0,0,0,0,0,0,0,0,Tense,20,?,?,When,he,finished,"university,",Jerry,thought,about,starting,a,business.,He,wanted,to,be,a,millionaire.,?,?,?,?,?,?,?,?,?,?,?,?,?,?,?,?,?
German,106,17,x,Perfect_Mismatch,x,Is Emma’s work still exciting?,1980,1109,486,875,513,626,649,465,482,423,533,480,630,501,506,405,412,539,476,0,0,0,0,0,0,0,0,0,0,0,0,0,0,0,0,Tense,13,When,she,first,started,her,"job,",Emma,has,loved,the,work,very,much.,It,is,not,very,exciting,now.,?,?,?,?,?,?,?,?,?,?,?,?,?,?,?,?
German,106,26,x,Perfect_Mismatch,x,Has Matt been a successful musician?,0,0,515,466,801,441,412,368,461,360,472,482,736,429,650,785,618,446,523,0,0,0,0,0,0,0,0,0,0,0,0,0,0,0,0,Tense,9,?,?,Once,many,years,"ago,",Matt,has,been,a,successful,businessman.,He,now,feels,unsatisfied,with,his,life.,?,?,?,?,?,?,?,?,?,?,?,?,?,?,?,?
German,106,48,x,Perfect_Mismatch,x,Does Paul want to go out with only one woman?,0,0,0,1100,508,425,594,623,379,414,530,422,482,367,429,521,413,376,458,404,704,0,0,0,0,0,0,0,0,0,0,0,0,0,0,Tense,17,?,?,?,On,his,"birthday,",Paul,has,met,two,lovely,women.,He,wants,to,go,out,with,both,of,them.,?,?,?,?,?,?,?,?,?,?,?,?,?,?
German,106,60,m,Perfect_Mismatch,m,Did Sandra think about quitting her job?,0,0,0,0,502,445,733,498,583,482,402,520,556,408,516,427,649,0,0,0,0,0,0,0,0,0,0,0,0,0,0,0,0,0,0,Tense,21,?,?,?,?,Last,"month,",Sandra,has,felt,unhappy,at,work.,She,even,thought,about,leaving.,?,?,?,?,?,?,?,?,?,?,?,?,?,?,?,?,?,?
German,106,61,m,Perfect_Mismatch,m,Has Joe liked Mary’s old school-friends?,0,0,0,0,379,418,465,370,437,492,540,529,788,548,470,520,551,463,616,0,0,0,0,0,0,0,0,0,0,0,0,0,0,0,0,Tense,1,?,?,?,?,At,"first,",Joe,has,liked,Mary’s,old,school-friends.,He,does,not,think,they,are,boring.,?,?,?,?,?,?,?,?,?,?,?,?,?,?,?,?
German,106,76,x,Perfect_Mismatch,x,Has James gone running every day?,0,0,0,0,464,500,590,507,553,518,566,381,488,509,501,581,566,382,450,0,0,0,0,0,0,0,0,0,0,0,0,0,0,0,0,Tense,5,?,?,?,?,Last,"week,",James,has,gone,swimming,every,day.,Now,he,is,getting,bored,of,it.,?,?,?,?,?,?,?,?,?,?,?,?,?,?,?,?
German,106,4,m,Perfect_Match,m,Did Jerry want to be a millionaire?,0,0,1455,728,752,733,725,601,889,655,810,656,725,692,754,720,857,408,670,0,0,0,0,0,0,0,0,0,0,0,0,0,0,0,0,Tense,20,?,?,Since,he,finished,"university,",Jerry,has,thought,about,starting,a,business.,He,wanted,to,be,a,millionaire.,?,?,?,?,?,?,?,?,?,?,?,?,?,?,?,?
German,106,6,x,Perfect_Match,x,Has Kate studied Russian in her spare time?,0,0,0,1336,728,1034,957,761,655,732,808,736,707,552,1433,848,600,493,624,676,0,0,0,0,0,0,0,0,0,0,0,0,0,0,0,Tense,12,?,?,?,Since,last,"year,",Kate,has,studied,French,in,her,spare,time.,She,now,wants,to,learn,German.,?,?,?,?,?,?,?,?,?,?,?,?,?,?,?
German,106,15,m,Perfect_Match,m,Was Barbara’s credit card bill enormous?,0,0,0,0,614,809,1041,1372,619,741,889,699,622,990,1010,613,570,635,0,0,0,0,0,0,0,0,0,0,0,0,0,0,0,0,0,Tense,16,?,?,?,?,Since,"Christmas,",Barbara,has,spent,too,much,money.,Her,credit,card,bill,was,enormous.,?,?,?,?,?,?,?,?,?,?,?,?,?,?,?,?,?
German,106,43,x,Perfect_Match,x,Has Sam thought Jenny was ugly?,0,55,1042,679,460,486,734,405,730,443,433,428,485,505,554,437,436,590,469,545,509,432,0,0,0,0,0,0,0,0,0,0,0,0,0,Tense,4,?,Since,he,first,saw,"her,",Sam,has,thought,Jenny,was,beautiful.,"However,",he,is,far,too,nervous,to,speak,to,her.,?,?,?,?,?,?,?,?,?,?,?,?,?
German,106,52,x,Perfect_Match,x,Has William met his mother after work?,0,0,543,383,547,464,470,385,443,394,409,399,409,481,399,473,405,496,379,387,402,416,398,744,0,0,0,0,0,0,0,0,0,0,0,Tense,8,?,?,For,a,year,"now,",William,has,met,his,best,friend,after,work,every,Friday.,Now,he,spends,every,night,with,his,girlfriend.,?,?,?,?,?,?,?,?,?,?,?
German,106,75,m,Perfect_Match,m,Does Michael want to become a professional?,0,0,0,694,670,601,583,499,501,408,597,725,497,445,419,485,386,353,429,0,0,0,0,0,0,0,0,0,0,0,0,0,0,0,0,Tense,24,?,?,?,Since,the,"summer,",Michael,has,learnt,to,play,poker.,He,now,wants,to,become,a,professional.,?,?,?,?,?,?,?,?,?,?,?,?,?,?,?,?
German,106,11,x,Past_Mismatch,x,Does Ben pay the same amount for his insurance? ,0,0,0,0,861,783,522,550,591,462,469,439,471,638,497,460,485,442,434,496,0,0,0,0,0,0,0,0,0,0,0,0,0,0,0,Tense,23,?,?,?,?,Since,"February,",Ben,crashed,his,car,four,times.,He,now,pays,a,lot,for,his,insurance.,?,?,?,?,?,?,?,?,?,?,?,?,?,?,?
German,106,25,m,Past_Mismatch,m,Did Mark see the film three times?,0,0,0,768,616,586,612,621,613,543,598,672,817,559,536,504,555,0,0,0,0,0,0,0,0,0,0,0,0,0,0,0,0,0,0,Tense,7,?,?,?,Since,last,"Friday,",Mark,saw,the,same,film,three,times.,He,really,loved,it.,?,?,?,?,?,?,?,?,?,?,?,?,?,?,?,?,?,?
German,106,44,m,Past_Mismatch,m,Did Bert want to enter into a gardening competition?,0,0,0,0,452,479,1071,545,368,511,380,436,578,540,551,631,533,478,424,448,452,0,0,0,0,0,0,0,0,0,0,0,0,0,0,Tense,15,?,?,?,?,Since,"spring,",Bert,planted,many,roses,in,the,garden.,He,wanted,to,enter,into,a,gardening,competition.,?,?,?,?,?,?,?,?,?,?,?,?,?,?
German,106,66,x,Past_Mismatch,x,Does Alan like baking bread now?,0,446,430,425,515,540,633,547,736,670,825,745,716,761,545,484,431,430,0,0,0,0,0,0,0,0,0,0,0,0,0,0,0,0,0,Tense,19,?,Since,he,first,started,"cooking,",Alan,enjoyed,making,pasta,most,of,all.,He,now,likes,making,desserts.,?,?,?,?,?,?,?,?,?,?,?,?,?,?,?,?,?
German,106,68,x,Past_Mismatch,x,Did the aunt visit our house?,420,537,519,447,555,496,491,619,602,556,707,659,573,440,460,0,0,0,0,0,0,0,0,0,0,0,0,0,0,0,0,0,0,0,0,Tense,3,Since,he,moved,"in,",my,old,neighbor,visited,our,house.,He,brought,us,a,cake.,?,?,?,?,?,?,?,?,?,?,?,?,?,?,?,?,?,?,?,?
German,106,81,m,Past_Mismatch,m,Did Tom feel very unwell?,0,390,363,279,589,402,373,402,583,631,560,613,511,431,368,360,507,0,0,0,0,0,0,0,0,0,0,0,0,0,0,0,0,0,0,Tense,11,?,For,the,last,three,"days,",Tom,felt,very,unwell.,He,could,not,even,go,to,work.,?,?,?,?,?,?,?,?,?,?,?,?,?,?,?,?,?,?
German,106,23,m,Past_Match,m,Did Jenny want to escape from her life?,0,491,551,727,483,520,455,513,451,506,587,562,550,946,750,727,437,453,0,0,0,0,0,0,0,0,0,0,0,0,0,0,0,0,0,Tense,10,?,Before,her,baby,was,"born,",Jenny,wanted,to,escape,from,her,life.,She,was,very,stressed,out.,?,?,?,?,?,?,?,?,?,?,?,?,?,?,?,?,?
German,106,27,m,Past_Match,m,Did Brenda want to become an actress?,468,525,443,535,442,324,372,485,455,549,534,622,480,544,463,577,446,555,0,0,0,0,0,0,0,0,0,0,0,0,0,0,0,0,0,Tense,6,When,she,was,ten,years,"old,",Brenda,wanted,to,be,an,actress.,She,now,works,in,a,hospital.,?,?,?,?,?,?,?,?,?,?,?,?,?,?,?,?,?
German,106,45,m,Past_Match,m,Did the cat eat only fish?,0,0,0,0,445,511,422,425,313,554,448,365,339,386,708,0,0,0,0,0,0,0,0,0,0,0,0,0,0,0,0,0,0,0,0,Tense,2,?,?,?,?,"Initially,",the,cat,ate,only,fish.,She,now,also,eats,meat.,?,?,?,?,?,?,?,?,?,?,?,?,?,?,?,?,?,?,?,?
German,106,51,m,Past_Match,m,Did the band sell a million records?,0,0,0,0,508,527,627,432,485,435,470,533,451,423,460,0,0,0,0,0,0,0,0,0,0,0,0,0,0,0,0,0,0,0,0,Tense,14,?,?,?,?,"Initially,",the,band,was,very,successful.,They,sold,a,million,records.,?,?,?,?,?,?,?,?,?,?,?,?,?,?,?,?,?,?,?,?
German,106,71,x,Past_Match,x,Is the army a safe profession?,0,0,0,409,457,405,487,339,625,480,491,445,414,564,447,479,717,0,0,0,0,0,0,0,0,0,0,0,0,0,0,0,0,0,0,Tense,18,?,?,?,Many,years,"ago,",Judith,thought,about,joining,the,army.,It,is,a,dangerous,profession.,?,?,?,?,?,?,?,?,?,?,?,?,?,?,?,?,?,?
German,106,80,x,Past_Match,x,Does Christine still like Gary?,0,0,0,0,435,410,484,542,423,486,465,496,439,666,465,588,0,0,0,0,0,0,0,0,0,0,0,0,0,0,0,0,0,0,0,Tense,22,?,?,?,?,At,"first,",Christine,wanted,to,marry,Gary.,Now,she,finds,him,unpleasant.,?,?,?,?,?,?,?,?,?,?,?,?,?,?,?,?,?,?,?
German,107,28,m,Perfect_Mismatch,m,Has the cat eaten only fish?,0,0,0,0,461,1020,492,403,396,424,403,395,1404,456,380,516,0,0,0,0,0,0,0,0,0,0,0,0,0,0,0,0,0,0,0,Tense,2,?,?,?,?,"Initially,",the,cat,has,eaten,only,fish.,She,now,also,eats,meat.,?,?,?,?,?,?,?,?,?,?,?,?,?,?,?,?,?,?,?
German,107,34,m,Perfect_Mismatch,m,Has Brenda wanted to become an actress?,464,462,444,453,375,377,384,377,357,336,590,422,401,385,512,1897,455,427,370,0,0,0,0,0,0,0,0,0,0,0,0,0,0,0,0,Tense,6,When,she,was,ten,years,"old,",Brenda,has,wanted,to,be,an,actress.,She,now,works,in,a,hospital.,?,?,?,?,?,?,?,?,?,?,?,?,?,?,?,?
German,107,41,x,Perfect_Mismatch,x,Does Christine still like Gary?,0,0,0,0,302,347,398,1247,342,386,349,363,573,367,363,616,380,0,0,0,0,0,0,0,0,0,0,0,0,0,0,0,0,0,0,Tense,22,?,?,?,?,At,"first,",Christine,has,wanted,to,marry,Gary.,Now,she,finds,him,unpleasant.,?,?,?,?,?,?,?,?,?,?,?,?,?,?,?,?,?,?
German,107,50,m,Perfect_Mismatch,m,Has Jenny wanted to escape from her life?,0,547,466,442,384,391,370,376,429,441,418,441,435,408,405,485,424,424,413,0,0,0,0,0,0,0,0,0,0,0,0,0,0,0,0,Tense,10,?,Before,her,baby,was,"born,",Jenny,has,wanted,to,escape,from,her,life.,She,was,very,stressed,out.,?,?,?,?,?,?,?,?,?,?,?,?,?,?,?,?
German,107,72,m,Perfect_Mismatch,m,Did the band sell a million records?,0,0,0,0,542,447,424,400,368,360,342,336,753,412,354,348,0,0,0,0,0,0,0,0,0,0,0,0,0,0,0,0,0,0,0,Tense,14,?,?,?,?,"Initially,",the,band,has,been,very,successful.,They,sold,a,million,records.,?,?,?,?,?,?,?,?,?,?,?,?,?,?,?,?,?,?,?
German,107,75,x,Perfect_Mismatch,x,Is the army a safe profession?,0,0,0,400,408,375,323,341,328,335,320,264,259,224,918,512,402,371,0,0,0,0,0,0,0,0,0,0,0,0,0,0,0,0,0,Tense,18,?,?,?,Many,years,"ago,",Judith,has,thought,about,joining,the,army.,It,is,a,dangerous,profession.,?,?,?,?,?,?,?,?,?,?,?,?,?,?,?,?,?
German,107,4,m,Perfect_Match,m,Did Sandra think about quitting her job?,0,0,473,436,427,599,606,641,686,738,864,688,508,422,534,505,502,0,0,0,0,0,0,0,0,0,0,0,0,0,0,0,0,0,0,Tense,21,?,?,For,the,last,"month,",Sandra,has,felt,unhappy,at,work.,She,even,thought,about,leaving.,?,?,?,?,?,?,?,?,?,?,?,?,?,?,?,?,?,?
German,107,33,x,Perfect_Match,x,Does Paul want to go out with only one woman?,0,0,0,445,1057,653,411,416,405,366,343,351,363,430,574,504,423,383,398,427,384,0,0,0,0,0,0,0,0,0,0,0,0,0,0,Tense,17,?,?,?,Since,his,"birthday,",Paul,has,met,two,lovely,women.,He,wants,to,go,out,with,both,of,them.,?,?,?,?,?,?,?,?,?,?,?,?,?,?
German,107,46,x,Perfect_Match,m,Has Joe liked Mary’s old school-friends?,0,0,412,417,384,396,374,366,392,355,330,395,555,414,376,363,372,338,348,0,0,0,0,0,0,0,0,0,0,0,0,0,0,0,0,Tense,1,?,?,Since,he,met,"them,",Joe,has,liked,Mary’s,old,school-friends.,He,does,not,think,they,are,boring.,?,?,?,?,?,?,?,?,?,?,?,?,?,?,?,?
German,107,58,x,Perfect_Match,x,Has Matt been a successful musician?,0,0,397,625,464,375,391,390,371,375,416,365,527,401,416,439,521,408,369,0,0,0,0,0,0,0,0,0,0,0,0,0,0,0,0,Tense,9,?,?,Since,he,was,"twenty,",Matt,has,been,a,successful,businessman.,He,now,feels,unsatisfied,with,his,life.,?,?,?,?,?,?,?,?,?,?,?,?,?,?,?,?
German,107,73,x,Perfect_Match,x,Is Emma’s work still exciting?,447,351,439,391,409,415,378,360,372,373,363,364,364,359,344,406,372,372,387,0,0,0,0,0,0,0,0,0,0,0,0,0,0,0,0,Tense,13,Since,she,first,started,her,"job,",Emma,has,loved,the,work,very,much.,It,is,not,very,exciting,now.,?,?,?,?,?,?,?,?,?,?,?,?,?,?,?,?
German,107,78,m,Perfect_Match,x,Has James gone running every day?,0,0,0,912,500,396,387,379,405,382,371,367,369,467,358,375,348,396,391,0,0,0,0,0,0,0,0,0,0,0,0,0,0,0,0,Tense,5,?,?,?,Since,the,"summer,",James,has,gone,swimming,every,day.,Now,he,is,getting,bored,of,it.,?,?,?,?,?,?,?,?,?,?,?,?,?,?,?,?
German,107,9,x,Past_Mismatch,x,Did Kate study Russian in her spare time?,0,0,0,493,492,475,508,746,535,487,494,523,509,443,484,495,502,497,448,0,0,0,0,0,0,0,0,0,0,0,0,0,0,0,0,Tense,12,?,?,?,Since,last,"year,",Kate,studied,French,in,her,spare,time.,She,now,wants,to,learn,German.,?,?,?,?,?,?,?,?,?,?,?,?,?,?,?,?
German,107,10,x,Past_Mismatch,m,Does Michael want to become a professional?,0,0,0,490,491,500,506,504,512,445,504,447,483,484,618,579,652,601,0,0,0,0,0,0,0,0,0,0,0,0,0,0,0,0,0,Tense,24,?,?,?,Since,the,"summer,",Michael,learnt,to,play,poker.,He,now,wants,to,become,a,professional.,?,?,?,?,?,?,?,?,?,?,?,?,?,?,?,?,?
German,107,63,x,Past_Mismatch,x,Did Sam think Jenny was ugly?,0,656,610,500,509,517,699,393,427,287,441,417,401,411,438,409,411,419,453,412,442,0,0,0,0,0,0,0,0,0,0,0,0,0,0,Tense,4,?,Since,he,first,saw,"her,",Sam,thought,Jenny,was,beautiful.,"However,",he,is,far,too,nervous,to,speak,to,her.,?,?,?,?,?,?,?,?,?,?,?,?,?,?
German,107,65,m,Past_Mismatch,m,Did Jerry want to be a millionaire?,0,0,517,429,437,405,438,384,394,398,418,413,440,831,411,374,388,492,0,0,0,0,0,0,0,0,0,0,0,0,0,0,0,0,0,Tense,20,?,?,Since,he,finished,"university,",Jerry,thought,about,starting,a,business.,He,wanted,to,be,a,millionaire.,?,?,?,?,?,?,?,?,?,?,?,?,?,?,?,?,?
German,107,69,m,Past_Mismatch,m,Was Barbara’s credit card bill enormous?,0,0,0,0,396,463,364,398,351,338,339,367,1628,374,412,430,461,0,0,0,0,0,0,0,0,0,0,0,0,0,0,0,0,0,0,Tense,16,?,?,?,?,Since,"Christmas,",Barbara,spent,too,much,money.,Her,credit,card,bill,was,enormous.,?,?,?,?,?,?,?,?,?,?,?,?,?,?,?,?,?,?
German,107,83,x,Past_Mismatch,x,Did William meet his mother after work?,0,0,553,738,479,371,420,419,430,405,387,410,716,409,443,855,580,586,486,426,436,400,475,0,0,0,0,0,0,0,0,0,0,0,0,Tense,8,?,?,For,a,year,"now,",William,met,his,best,friend,after,work,every,Friday.,Now,he,spends,every,night,with,his,girlfriend.,?,?,?,?,?,?,?,?,?,?,?,?
German,107,27,m,Past_Match,m,Did Tom feel very unwell?,0,0,0,494,712,838,664,400,375,353,363,381,417,360,374,383,379,0,0,0,0,0,0,0,0,0,0,0,0,0,0,0,0,0,0,Tense,11,?,?,?,Three,days,"ago,",Tom,felt,very,unwell.,He,could,not,even,go,to,work.,?,?,?,?,?,?,?,?,?,?,?,?,?,?,?,?,?,?
German,107,32,m,Past_Match,m,Did Mark see the film three times?,0,0,0,0,415,389,415,435,415,385,366,376,370,406,423,372,355,0,0,0,0,0,0,0,0,0,0,0,0,0,0,0,0,0,0,Tense,7,?,?,?,?,Last,"Friday,",Mark,saw,the,same,film,three,times.,He,really,loved,it.,?,?,?,?,?,?,?,?,?,?,?,?,?,?,?,?,?,?
German,107,47,x,Past_Match,x,Did the aunt visit our house?,0,0,0,416,661,457,421,362,415,337,482,479,517,428,446,0,0,0,0,0,0,0,0,0,0,0,0,0,0,0,0,0,0,0,0,Tense,3,?,?,?,"Yesterday,",my,old,neighbor,visited,our,house.,He,brought,us,a,cake.,?,?,?,?,?,?,?,?,?,?,?,?,?,?,?,?,?,?,?,?
German,107,52,x,Past_Match,x,Does Alan like baking bread now?,0,0,0,0,439,504,639,595,467,577,779,613,476,517,480,429,736,484,447,428,444,0,0,0,0,0,0,0,0,0,0,0,0,0,0,Tense,13,?,?,?,?,When,he,first,started,"cooking,",Alan,enjoyed,making,pasta,most,of,all.,He,now,likes,making,desserts.,?,?,?,?,?,?,?,?,?,?,?,?,?,?
German,107,54,m,Past_Match,m,Did Bert want to enter into a gardening competition?,0,0,0,0,504,437,458,482,467,483,466,453,452,472,513,599,521,489,440,462,493,0,0,0,0,0,0,0,0,0,0,0,0,0,0,Tense,15,?,?,?,?,Last,"spring,",Bert,planted,many,roses,in,the,garden.,He,wanted,to,enter,into,a,gardening,competition.,?,?,?,?,?,?,?,?,?,?,?,?,?,?
German,107,61,x,Past_Match,x,Does Ben pay the same amount for his insurance? ,0,0,0,0,463,416,631,365,511,371,447,409,381,361,373,330,353,315,369,389,0,0,0,0,0,0,0,0,0,0,0,0,0,0,0,Tense,23,?,?,?,?,In,"February,",Ben,crashed,his,car,four,times.,He,now,pays,a,lot,for,his,insurance.,?,?,?,?,?,?,?,?,?,?,?,?,?,?,?
German,109,24,x,Perfect_Mismatch,x,Has Sam thought Jenny was ugly?,0,0,318,239,318,272,261,285,307,260,267,270,262,273,277,232,288,304,265,263,265,274,0,0,0,0,0,0,0,0,0,0,0,0,0,Tense,4,?,?,When,he,saw,"her,",Sam,has,thought,Jenny,was,beautiful.,"However,",he,is,far,too,nervous,to,speak,to,her.,?,?,?,?,?,?,?,?,?,?,?,?,?
German,109,25,x,Perfect_Mismatch,x,Has Kate studied Russian in her spare time?,0,0,0,0,188,355,290,264,277,319,274,250,248,250,253,249,264,243,275,241,0,0,0,0,0,0,0,0,0,0,0,0,0,0,0,Tense,12,?,?,?,?,Last,"year,",Kate,has,studied,French,in,her,spare,time.,She,now,wants,to,learn,German.,?,?,?,?,?,?,?,?,?,?,?,?,?,?,?
German,109,32,x,Perfect_Mismatch,x,Has William met his mother after work?,0,0,0,225,238,62,133,350,211,229,255,240,258,193,262,249,353,250,401,208,243,288,313,309,0,0,0,0,0,0,0,0,0,0,0,Tense,8,?,?,?,A,year,"ago,",William,has,met,his,best,friend,after,work,every,Friday.,Now,he,spends,every,night,with,his,girlfriend.,?,?,?,?,?,?,?,?,?,?,?
German,109,49,m,Perfect_Mismatch,m,Was Barbara’s credit card bill enormous?,0,0,0,0,203,178,233,224,244,261,246,259,242,236,245,203,204,222,0,0,0,0,0,0,0,0,0,0,0,0,0,0,0,0,0,Tense,16,?,?,?,?,At,"Christmas,",Barbara,has,spent,too,much,money.,Her,credit,card,bill,was,enormous.,?,?,?,?,?,?,?,?,?,?,?,?,?,?,?,?,?
German,109,66,m,Perfect_Mismatch,m,Does Michael want to become a professional?,0,0,0,0,235,258,238,294,303,279,225,174,236,226,211,192,210,210,220,0,0,0,0,0,0,0,0,0,0,0,0,0,0,0,0,Tense,24,?,?,?,?,Last,"year,",Michael,has,learnt,to,play,poker.,He,now,wants,to,become,a,professional.,?,?,?,?,?,?,?,?,?,?,?,?,?,?,?,?
German,109,68,m,Perfect_Mismatch,m,Did Jerry want to be a millionaire?,0,0,207,209,224,214,193,220,200,192,194,175,202,162,184,176,182,129,241,0,0,0,0,0,0,0,0,0,0,0,0,0,0,0,0,Tense,20,?,?,When,he,finished,"university,",Jerry,has,thought,about,starting,a,business.,He,wanted,to,be,a,millionaire.,?,?,?,?,?,?,?,?,?,?,?,?,?,?,?,?
German,109,12,m,Perfect_Match,m,Did Bert want to enter into a gardening competition?,0,0,0,0,642,271,626,427,609,479,421,418,346,325,425,358,404,340,328,355,328,375,0,0,0,0,0,0,0,0,0,0,0,0,0,Tense,15,?,?,?,?,Since,"spring,",Bert,has,planted,many,roses,in,the,garden.,He,wanted,to,enter,into,a,gardening,competition.,?,?,?,?,?,?,?,?,?,?,?,?,?
German,109,14,x,Perfect_Match,x,Does Alan like baking bread now?,0,325,264,248,256,292,621,317,358,351,322,208,301,301,321,285,262,270,302,0,0,0,0,0,0,0,0,0,0,0,0,0,0,0,0,Tense,19,?,Since,he,first,started,"cooking,",Alan,has,enjoyed,making,pasta,most,of,all.,He,now,likes,making,desserts.,?,?,?,?,?,?,?,?,?,?,?,?,?,?,?,?
German,109,16,x,Perfect_Match,x,Has the aunt visited our house?,234,251,238,267,277,273,259,275,290,297,289,322,358,262,289,263,0,0,0,0,0,0,0,0,0,0,0,0,0,0,0,0,0,0,0,Tense,3,Since,he,moved,"in,",my,old,neighbor,has,visited,our,house.,He,brought,us,a,cake.,?,?,?,?,?,?,?,?,?,?,?,?,?,?,?,?,?,?,?
German,109,23,x,Perfect_Match,x,Does Ben pay the same amount for his insurance? ,0,0,0,0,435,287,281,391,290,235,252,260,274,282,260,244,364,245,296,284,339,0,0,0,0,0,0,0,0,0,0,0,0,0,0,Tense,23,?,?,?,?,Since,"February,",Ben,has,crashed,his,car,four,times.,He,now,pays,a,lot,for,his,insurance.,?,?,?,?,?,?,?,?,?,?,?,?,?,?
German,109,64,m,Perfect_Match,m,Has Mark seen the film three times?,0,0,0,175,190,192,184,189,225,247,209,200,229,237,205,196,210,209,0,0,0,0,0,0,0,0,0,0,0,0,0,0,0,0,0,Tense,7,?,?,?,Since,last,"Friday,",Mark,has,seen,the,same,film,three,times.,He,really,loved,it.,?,?,?,?,?,?,?,?,?,?,?,?,?,?,?,?,?
German,109,71,m,Perfect_Match,m,Has Tom felt very unwell?,0,186,239,256,246,229,226,195,241,194,223,228,215,172,178,190,242,183,0,0,0,0,0,0,0,0,0,0,0,0,0,0,0,0,0,Tense,11,?,For,the,last,three,"days,",Tom,has,felt,very,unwell.,He,could,not,even,go,to,work.,?,?,?,?,?,?,?,?,?,?,?,?,?,?,?,?,?
German,109,13,m,Past_Mismatch,m,Did Jenny want to escape from her life?,0,401,318,301,315,309,445,302,284,323,305,372,339,323,361,295,283,309,0,0,0,0,0,0,0,0,0,0,0,0,0,0,0,0,0,Tense,10,?,Since,her,baby,was,"born,",Jenny,wanted,to,escape,from,her,life.,She,was,very,stressed,out.,?,?,?,?,?,?,?,?,?,?,?,?,?,?,?,?,?
German,109,29,m,Past_Mismatch,m,Did the band sell a million records?,0,0,273,269,281,210,222,260,250,269,288,242,260,227,246,0,0,0,0,0,0,0,0,0,0,0,0,0,0,0,0,0,0,0,0,Tense,14,?,?,Since,the,"beginning,",the,band,was,very,successful.,They,sold,a,million,records.,?,?,?,?,?,?,?,?,?,?,?,?,?,?,?,?,?,?,?,?
German,109,34,x,Past_Mismatch,x,Does Christine still like Gary?,0,0,0,222,237,220,233,227,224,226,267,258,230,219,213,276,0,0,0,0,0,0,0,0,0,0,0,0,0,0,0,0,0,0,0,Tense,22,?,?,?,For,months,"now,",Christine,wanted,to,marry,Gary.,Now,she,finds,him,unpleasant.,?,?,?,?,?,?,?,?,?,?,?,?,?,?,?,?,?,?,?
German,109,39,m,Past_Mismatch,m,Did Brenda want to become an actress?,250,215,251,218,225,257,236,251,205,240,248,228,221,248,257,277,275,287,0,0,0,0,0,0,0,0,0,0,0,0,0,0,0,0,0,Tense,6,Since,she,was,ten,years,"old,",Brenda,wanted,to,be,an,actress.,She,now,works,in,a,hospital.,?,?,?,?,?,?,?,?,?,?,?,?,?,?,?,?,?
German,109,70,m,Past_Mismatch,m,Did the cat eat only fish?,0,0,168,197,200,201,204,209,209,181,230,207,213,223,223,0,0,0,0,0,0,0,0,0,0,0,0,0,0,0,0,0,0,0,0,Tense,2,?,?,Since,last,"week,",the,cat,ate,only,fish.,She,now,also,eats,meat.,?,?,?,?,?,?,?,?,?,?,?,?,?,?,?,?,?,?,?,?
German,109,81,x,Past_Mismatch,x,Is the army a safe profession?,0,0,253,268,268,254,240,233,257,258,236,243,253,247,232,264,251,0,0,0,0,0,0,0,0,0,0,0,0,0,0,0,0,0,0,Tense,18,?,?,For,many,years,"now,",Judith,thought,about,joining,the,army.,It,is,a,dangerous,profession.,?,?,?,?,?,?,?,?,?,?,?,?,?,?,?,?,?,?
German,109,4,m,Past_Match,x,Did James go running every day?,0,0,0,0,322,222,351,284,362,288,266,279,319,319,278,300,329,328,0,0,0,0,0,0,0,0,0,0,0,0,0,0,0,0,0,Tense,5,?,?,?,?,Last,"week,",James,went,swimming,every,day.,Now,he,is,getting,bored,of,it.,?,?,?,?,?,?,?,?,?,?,?,?,?,?,?,?,?
German,109,36,x,Past_Match,x,Was Matt a successful musician?,0,0,231,198,185,231,369,262,227,245,240,341,228,229,270,275,236,280,0,0,0,0,0,0,0,0,0,0,0,0,0,0,0,0,0,Tense,9,?,?,Once,many,years,"ago,",Matt,was,a,successful,businessman.,He,now,feels,unsatisfied,with,his,life.,?,?,?,?,?,?,?,?,?,?,?,?,?,?,?,?,?
German,109,37,m,Past_Match,m,Did Sandra think about quitting her job?,0,0,0,0,290,246,261,287,283,311,265,258,256,284,242,220,0,0,0,0,0,0,0,0,0,0,0,0,0,0,0,0,0,0,0,Tense,21,?,?,?,?,Last,"month,",Sandra,felt,unhappy,at,work.,She,even,thought,about,leaving.,?,?,?,?,?,?,?,?,?,?,?,?,?,?,?,?,?,?,?
German,109,60,m,Past_Match,m,Did Joe like Mary’s old school-friends?,0,0,0,0,254,201,255,233,261,198,237,240,216,226,187,200,216,221,0,0,0,0,0,0,0,0,0,0,0,0,0,0,0,0,0,Tense,1,?,?,?,?,At,"first,",Joe,liked,Mary’s,old,school-friends.,He,does,not,think,they,are,boring.,?,?,?,?,?,?,?,?,?,?,?,?,?,?,?,?,?
German,109,62,x,Past_Match,x,Does Paul want to go out with only one woman?,0,0,0,181,232,215,201,172,219,210,213,220,224,219,222,198,211,248,226,228,0,0,0,0,0,0,0,0,0,0,0,0,0,0,0,Tense,17,?,?,?,On,his,"birthday,",Paul,met,two,lovely,women.,He,wants,to,go,out,with,both,of,them.,?,?,?,?,?,?,?,?,?,?,?,?,?,?,?
German,109,69,x,Past_Match,x,Is Emma’s work still exciting?,227,140,179,166,230,208,234,219,194,190,212,184,185,189,139,164,193,230,0,0,0,0,0,0,0,0,0,0,0,0,0,0,0,0,0,Tense,13,When,she,first,started,her,"job,",Emma,loved,the,work,very,much.,It,is,not,very,exciting,now.,?,?,?,?,?,?,?,?,?,?,?,?,?,?,?,?,?
German,111,16,x,Perfect_Mismatch,m,Has Jenny wanted to escape from her life?,0,603,300,497,227,427,394,447,564,399,461,393,435,566,669,562,490,319,321,0,0,0,0,0,0,0,0,0,0,0,0,0,0,0,0,Tense,10,?,Before,her,baby,was,"born,",Jenny,has,wanted,to,escape,from,her,life.,She,was,very,stressed,out.,?,?,?,?,?,?,?,?,?,?,?,?,?,?,?,?
German,111,26,m,Perfect_Mismatch,m,Did the band sell a million records?,0,0,0,0,360,510,577,330,319,319,992,438,360,327,310,435,0,0,0,0,0,0,0,0,0,0,0,0,0,0,0,0,0,0,0,Tense,14,?,?,?,?,"Initially,",the,band,has,been,very,successful.,They,sold,a,million,records.,?,?,?,?,?,?,?,?,?,?,?,?,?,?,?,?,?,?,?
German,111,27,m,Perfect_Mismatch,m,Has Brenda wanted to become an actress?,352,367,292,310,350,359,356,311,283,320,356,232,330,408,295,254,253,267,405,0,0,0,0,0,0,0,0,0,0,0,0,0,0,0,0,Tense,6,When,she,was,ten,years,"old,",Brenda,has,wanted,to,be,an,actress.,She,now,works,in,a,hospital.,?,?,?,?,?,?,?,?,?,?,?,?,?,?,?,?
German,111,32,x,Perfect_Mismatch,x,Is the army a safe profession?,0,0,0,441,616,297,530,308,273,326,278,288,270,572,287,284,438,275,0,0,0,0,0,0,0,0,0,0,0,0,0,0,0,0,0,Tense,18,?,?,?,Many,years,"ago,",Judith,has,thought,about,joining,the,army.,It,is,a,dangerous,profession.,?,?,?,?,?,?,?,?,?,?,?,?,?,?,?,?,?
German,111,68,x,Perfect_Mismatch,x,Does Christine still like Gary?,0,0,0,0,364,329,519,277,280,270,260,289,425,191,295,542,818,0,0,0,0,0,0,0,0,0,0,0,0,0,0,0,0,0,0,Tense,22,?,?,?,?,At,"first,",Christine,has,wanted,to,marry,Gary.,Now,she,finds,him,unpleasant.,?,?,?,?,?,?,?,?,?,?,?,?,?,?,?,?,?,?
German,111,76,x,Perfect_Mismatch,m,Has the cat eaten only fish?,0,0,0,0,443,379,267,416,376,325,259,323,471,290,333,388,0,0,0,0,0,0,0,0,0,0,0,0,0,0,0,0,0,0,0,Tense,2,?,?,?,?,"Initially,",the,cat,has,eaten,only,fish.,She,now,also,eats,meat.,?,?,?,?,?,?,?,?,?,?,?,?,?,?,?,?,?,?,?
German,111,18,x,Perfect_Match,x,Has James gone running every day?,0,0,0,1772,362,491,408,884,449,449,265,236,442,310,326,328,322,432,465,0,0,0,0,0,0,0,0,0,0,0,0,0,0,0,0,Tense,5,?,?,?,Since,the,"summer,",James,has,gone,swimming,every,day.,Now,he,is,getting,bored,of,it.,?,?,?,?,?,?,?,?,?,?,?,?,?,?,?,?
German,111,44,x,Perfect_Match,x,Does Paul want to go out with only one woman?,0,0,0,553,588,289,351,582,299,279,352,342,480,479,235,329,371,263,514,284,289,0,0,0,0,0,0,0,0,0,0,0,0,0,0,Tense,17,?,?,?,Since,his,"birthday,",Paul,has,met,two,lovely,women.,He,wants,to,go,out,with,both,of,them.,?,?,?,?,?,?,?,?,?,?,?,?,?,?
German,111,49,x,Perfect_Match,x,Has Matt been a successful musician?,0,0,369,278,284,271,227,601,274,391,450,293,606,258,311,280,428,309,526,0,0,0,0,0,0,0,0,0,0,0,0,0,0,0,0,Tense,9,?,?,Since,he,was,"twenty,",Matt,has,been,a,successful,businessman.,He,now,feels,unsatisfied,with,his,life.,?,?,?,?,?,?,?,?,?,?,?,?,?,?,?,?
German,111,69,m,Perfect_Match,m,Did Sandra think about quitting her job?,0,0,313,423,318,291,482,268,356,360,648,339,305,311,257,292,275,0,0,0,0,0,0,0,0,0,0,0,0,0,0,0,0,0,0,Tense,21,?,?,For,the,last,"month,",Sandra,has,felt,unhappy,at,work.,She,even,thought,about,leaving.,?,?,?,?,?,?,?,?,?,?,?,?,?,?,?,?,?,?
German,111,77,x,Perfect_Match,x,Is Emma’s work still exciting?,434,305,518,398,448,428,305,418,256,464,352,291,328,324,225,522,282,260,309,0,0,0,0,0,0,0,0,0,0,0,0,0,0,0,0,Tense,13,Since,she,first,started,her,"job,",Emma,has,loved,the,work,very,much.,It,is,not,very,exciting,now.,?,?,?,?,?,?,?,?,?,?,?,?,?,?,?,?
German,111,78,m,Perfect_Match,m,Has Joe liked Mary’s old school-friends?,0,0,360,432,261,358,419,305,290,313,421,714,508,248,257,378,359,259,560,0,0,0,0,0,0,0,0,0,0,0,0,0,0,0,0,Tense,1,?,?,Since,he,met,"them,",Joe,has,liked,Mary’s,old,school-friends.,He,does,not,think,they,are,boring.,?,?,?,?,?,?,?,?,?,?,?,?,?,?,?,?
German,111,22,m,Past_Mismatch,m,Was Barbara’s credit card bill enormous?,0,0,0,0,692,653,559,771,354,341,360,323,476,537,537,316,261,0,0,0,0,0,0,0,0,0,0,0,0,0,0,0,0,0,0,Tense,16,?,?,?,?,Since,"Christmas,",Barbara,spent,too,much,money.,Her,credit,card,bill,was,enormous.,?,?,?,?,?,?,?,?,?,?,?,?,?,?,?,?,?,?
German,111,47,x,Past_Mismatch,x,Did Sam think Jenny was ugly?,0,291,311,492,286,391,283,322,287,312,224,403,342,198,470,267,458,251,279,304,343,0,0,0,0,0,0,0,0,0,0,0,0,0,0,Tense,4,?,Since,he,first,saw,"her,",Sam,thought,Jenny,was,beautiful.,"However,",he,is,far,too,nervous,to,speak,to,her.,?,?,?,?,?,?,?,?,?,?,?,?,?,?
German,111,56,m,Past_Mismatch,m,Did Jerry want to be a millionaire?,0,0,465,333,210,319,604,305,373,232,465,547,383,189,410,434,246,414,0,0,0,0,0,0,0,0,0,0,0,0,0,0,0,0,0,Tense,20,?,?,Since,he,finished,"university,",Jerry,thought,about,starting,a,business.,He,wanted,to,be,a,millionaire.,?,?,?,?,?,?,?,?,?,?,?,?,?,?,?,?,?
German,111,59,x,Past_Mismatch,x,Did William meet his mother after work?,0,0,360,243,403,210,314,335,395,290,259,238,296,486,320,489,295,240,275,253,497,312,461,0,0,0,0,0,0,0,0,0,0,0,0,Tense,8,?,?,For,a,year,"now,",William,met,his,best,friend,after,work,every,Friday.,Now,he,spends,every,night,with,his,girlfriend.,?,?,?,?,?,?,?,?,?,?,?,?
German,111,81,m,Past_Mismatch,m,Does Michael want to become a professional?,0,0,0,388,379,275,571,277,434,553,286,519,366,288,361,496,290,544,0,0,0,0,0,0,0,0,0,0,0,0,0,0,0,0,0,Tense,24,?,?,?,Since,the,"summer,",Michael,learnt,to,play,poker.,He,now,wants,to,become,a,professional.,?,?,?,?,?,?,?,?,?,?,?,?,?,?,?,?,?
German,111,84,x,Past_Mismatch,x,Did Kate study Russian in her spare time?,0,0,0,400,251,344,279,289,303,283,243,239,297,42,241,486,305,330,333,0,0,0,0,0,0,0,0,0,0,0,0,0,0,0,0,Tense,12,?,?,?,Since,last,"year,",Kate,studied,French,in,her,spare,time.,She,now,wants,to,learn,German.,?,?,?,?,?,?,?,?,?,?,?,?,?,?,?,?
German,111,11,x,Past_Match,x,Does Ben pay the same amount for his insurance? ,0,0,0,0,326,290,458,557,415,357,428,509,460,269,438,436,280,346,390,652,0,0,0,0,0,0,0,0,0,0,0,0,0,0,0,Tense,23,?,?,?,?,In,"February,",Ben,crashed,his,car,four,times.,He,now,pays,a,lot,for,his,insurance.,?,?,?,?,?,?,?,?,?,?,?,?,?,?,?
German,111,24,x,Past_Match,x,Does Alan like baking bread now?,0,0,0,0,329,812,798,321,321,321,513,332,343,381,330,312,376,293,265,296,353,0,0,0,0,0,0,0,0,0,0,0,0,0,0,Tense,13,?,?,?,?,When,he,first,started,"cooking,",Alan,enjoyed,making,pasta,most,of,all.,He,now,likes,making,desserts.,?,?,?,?,?,?,?,?,?,?,?,?,?,?
German,111,25,x,Past_Match,x,Did the aunt visit our house?,0,0,0,459,341,469,582,598,593,427,429,576,394,358,220,0,0,0,0,0,0,0,0,0,0,0,0,0,0,0,0,0,0,0,0,Tense,3,?,?,?,"Yesterday,",my,old,neighbor,visited,our,house.,He,brought,us,a,cake.,?,?,?,?,?,?,?,?,?,?,?,?,?,?,?,?,?,?,?,?
German,111,33,m,Past_Match,m,Did Mark see the film three times?,0,0,0,0,274,396,472,254,317,384,414,358,346,444,258,278,284,0,0,0,0,0,0,0,0,0,0,0,0,0,0,0,0,0,0,Tense,7,?,?,?,?,Last,"Friday,",Mark,saw,the,same,film,three,times.,He,really,loved,it.,?,?,?,?,?,?,?,?,?,?,?,?,?,?,?,?,?,?
German,111,55,m,Past_Match,m,Did Tom feel very unwell?,0,0,0,304,380,334,451,304,292,236,365,328,200,293,342,337,349,0,0,0,0,0,0,0,0,0,0,0,0,0,0,0,0,0,0,Tense,11,?,?,?,Three,days,"ago,",Tom,felt,very,unwell.,He,could,not,even,go,to,work.,?,?,?,?,?,?,?,?,?,?,?,?,?,?,?,?,?,?
German,111,82,m,Past_Match,m,Did Bert want to enter into a gardening competition?,0,0,0,0,737,228,380,286,377,563,213,222,283,362,279,292,299,245,297,250,530,0,0,0,0,0,0,0,0,0,0,0,0,0,0,Tense,15,?,?,?,?,Last,"spring,",Bert,planted,many,roses,in,the,garden.,He,wanted,to,enter,into,a,gardening,competition.,?,?,?,?,?,?,?,?,?,?,?,?,?,?
German,112,22,m,Perfect_Mismatch,m,Has Tom felt very unwell?,0,0,0,439,442,536,468,499,628,585,737,836,597,619,561,540,541,703,0,0,0,0,0,0,0,0,0,0,0,0,0,0,0,0,0,Tense,11,?,?,?,Three,days,"ago,",Tom,has,felt,very,unwell.,He,could,not,even,go,to,work.,?,?,?,?,?,?,?,?,?,?,?,?,?,?,?,?,?
German,112,23,x,Perfect_Mismatch,x,Does Alan like baking bread now?,0,588,714,565,450,715,455,519,656,564,546,539,412,620,599,472,475,484,910,0,0,0,0,0,0,0,0,0,0,0,0,0,0,0,0,Tense,19,?,When,he,first,started,"cooking,",Alan,has,enjoyed,making,pasta,most,of,all.,He,now,likes,making,desserts.,?,?,?,?,?,?,?,?,?,?,?,?,?,?,?,?
German,112,24,m,Perfect_Mismatch,m,Has Mark seen the film three times?,0,0,0,0,571,458,539,463,507,505,663,730,585,618,588,439,413,411,0,0,0,0,0,0,0,0,0,0,0,0,0,0,0,0,0,Tense,7,?,?,?,?,Last,"Friday,",Mark,has,seen,the,same,film,three,times.,He,really,loved,it.,?,?,?,?,?,?,?,?,?,?,?,?,?,?,?,?,?
German,112,35,x,Perfect_Mismatch,x,Does Ben pay the same amount for his insurance? ,0,0,0,0,337,584,489,412,710,394,431,401,646,437,377,378,340,406,360,461,542,0,0,0,0,0,0,0,0,0,0,0,0,0,0,Tense,23,?,?,?,?,In,"February,",Ben,has,crashed,his,car,four,times.,He,now,pays,a,lot,for,his,insurance.,?,?,?,?,?,?,?,?,?,?,?,?,?,?
German,112,48,m,Perfect_Mismatch,m,Did Bert want to enter into a gardening competition?,0,0,0,0,784,821,601,387,615,376,377,411,388,405,644,412,345,392,403,367,614,812,0,0,0,0,0,0,0,0,0,0,0,0,0,Tense,15,?,?,?,?,Last,"spring,",Bert,has,planted,many,roses,in,the,garden.,He,wanted,to,enter,into,a,gardening,competition.,?,?,?,?,?,?,?,?,?,?,?,?,?
German,112,69,x,Perfect_Mismatch,x,Has the aunt visited our house?,0,0,0,690,481,629,760,629,655,463,1240,488,519,441,476,769,0,0,0,0,0,0,0,0,0,0,0,0,0,0,0,0,0,0,0,Tense,3,?,?,?,"Yesterday,",my,old,neighbor,has,visited,our,house.,He,brought,us,a,cake.,?,?,?,?,?,?,?,?,?,?,?,?,?,?,?,?,?,?,?
German,112,8,x,Perfect_Match,x,Is the army a safe profession?,0,0,664,580,495,456,490,516,637,513,520,457,1221,667,495,398,519,943,0,0,0,0,0,0,0,0,0,0,0,0,0,0,0,0,0,Tense,18,?,?,For,many,years,"now,",Judith,has,thought,about,joining,the,army.,It,is,a,dangerous,profession.,?,?,?,?,?,?,?,?,?,?,?,?,?,?,?,?,?
German,112,21,m,Perfect_Match,m,Has Jenny wanted to escape from her life?,0,440,378,502,376,585,425,477,459,403,1321,509,768,1451,627,510,454,552,543,0,0,0,0,0,0,0,0,0,0,0,0,0,0,0,0,Tense,10,?,Since,her,baby,was,"born,",Jenny,has,wanted,to,escape,from,her,life.,She,was,very,stressed,out.,?,?,?,?,?,?,?,?,?,?,?,?,?,?,?,?
German,112,31,x,Perfect_Match,x,Does Christine still like Gary?,0,0,0,621,1363,786,672,594,852,417,597,505,680,475,459,455,1083,0,0,0,0,0,0,0,0,0,0,0,0,0,0,0,0,0,0,Tense,22,?,?,?,For,months,"now,",Christine,has,wanted,to,marry,Gary.,Now,she,finds,him,unpleasant.,?,?,?,?,?,?,?,?,?,?,?,?,?,?,?,?,?,?
German,112,49,m,Perfect_Match,m,Has Brenda wanted to become an actress?,543,372,371,398,409,476,997,535,399,432,396,465,1936,671,465,431,404,351,806,0,0,0,0,0,0,0,0,0,0,0,0,0,0,0,0,Tense,6,Since,she,was,ten,years,"old,",Brenda,has,wanted,to,be,an,actress.,She,now,works,in,a,hospital.,?,?,?,?,?,?,?,?,?,?,?,?,?,?,?,?
German,112,54,m,Perfect_Match,m,Did the band sell a million records?,0,0,716,576,656,352,473,417,484,670,809,353,318,361,314,356,0,0,0,0,0,0,0,0,0,0,0,0,0,0,0,0,0,0,0,Tense,14,?,?,Since,the,"beginning,",the,band,has,been,very,successful.,They,sold,a,million,records.,?,?,?,?,?,?,?,?,?,?,?,?,?,?,?,?,?,?,?
German,112,76,m,Perfect_Match,m,Has the cat eaten only fish?,0,0,401,362,445,401,396,420,447,398,687,500,406,388,398,626,0,0,0,0,0,0,0,0,0,0,0,0,0,0,0,0,0,0,0,Tense,2,?,?,Since,last,"week,",the,cat,has,eaten,only,fish.,She,now,also,eats,meat.,?,?,?,?,?,?,?,?,?,?,?,?,?,?,?,?,?,?,?
German,112,6,x,Past_Mismatch,x,Does Paul want to go out with only one woman?,0,0,0,1302,986,1222,968,1027,491,514,528,690,605,653,605,598,516,542,489,546,0,0,0,0,0,0,0,0,0,0,0,0,0,0,0,Tense,17,?,?,?,Since,his,"birthday,",Paul,met,two,lovely,women.,He,wants,to,go,out,with,both,of,them.,?,?,?,?,?,?,?,?,?,?,?,?,?,?,?
German,112,16,x,Past_Mismatch,x,Is Emma’s work still exciting?,0,0,0,0,581,951,514,1025,2008,1983,552,708,597,653,588,615,533,525,510,453,590,873,0,0,0,0,0,0,0,0,0,0,0,0,0,Tense,13,?,?,?,?,Since,she,first,started,her,"job,",Emma,loved,the,work,very,much.,It,is,not,very,exciting,now.,?,?,?,?,?,?,?,?,?,?,?,?,?
German,112,32,x,Past_Mismatch,x,Did James go running every day?,0,0,0,426,410,469,521,456,469,522,672,574,438,363,468,545,415,403,0,0,0,0,0,0,0,0,0,0,0,0,0,0,0,0,0,Tense,5,?,?,?,Since,the,"summer,",James,went,swimming,every,day.,Now,he,is,getting,bored,of,it.,?,?,?,?,?,?,?,?,?,?,?,?,?,?,?,?,?
German,112,41,m,Past_Mismatch,m,Did Joe like Mary’s old school-friends?,0,0,407,441,345,354,362,575,541,538,1310,637,445,432,488,505,444,512,0,0,0,0,0,0,0,0,0,0,0,0,0,0,0,0,0,Tense,1,?,?,Since,he,met,"them,",Joe,liked,Mary’s,old,school-friends.,He,does,not,think,they,are,boring.,?,?,?,?,?,?,?,?,?,?,?,?,?,?,?,?,?
German,112,46,m,Past_Mismatch,m,Did Sandra think about quitting her job?,0,0,870,428,558,822,1570,896,862,488,461,764,440,500,492,507,0,0,0,0,0,0,0,0,0,0,0,0,0,0,0,0,0,0,0,Tense,21,?,?,For,the,last,"month,",Sandra,felt,unhappy,at,work.,She,even,thought,about,leaving.,?,?,?,?,?,?,?,?,?,?,?,?,?,?,?,?,?,?,?
German,112,84,x,Past_Mismatch,x,Was Matt a successful musician?,0,0,662,632,1011,653,365,446,412,624,532,572,430,461,969,372,354,497,0,0,0,0,0,0,0,0,0,0,0,0,0,0,0,0,0,Tense,9,?,?,Since,he,was,"twenty,",Matt,was,a,successful,businessman.,He,now,feels,unsatisfied,with,his,life.,?,?,?,?,?,?,?,?,?,?,?,?,?,?,?,?,?
German,112,19,m,Past_Match,m,Did Jerry want to be a millionaire?,0,0,654,449,451,827,952,901,468,786,493,986,621,535,551,546,589,1065,0,0,0,0,0,0,0,0,0,0,0,0,0,0,0,0,0,Tense,20,?,?,When,he,finished,"university,",Jerry,thought,about,starting,a,business.,He,wanted,to,be,a,millionaire.,?,?,?,?,?,?,?,?,?,?,?,?,?,?,?,?,?
German,112,25,x,Past_Match,x,Did William meet his mother after work?,0,0,0,341,401,733,580,771,427,383,673,470,430,508,1379,619,403,413,451,403,467,548,597,0,0,0,0,0,0,0,0,0,0,0,0,Tense,8,?,?,?,A,year,"ago,",William,met,his,best,friend,after,work,every,Friday.,Now,he,spends,every,night,with,his,girlfriend.,?,?,?,?,?,?,?,?,?,?,?,?
German,112,56,x,Past_Match,x,Did Kate study Russian in her spare time?,0,0,0,0,479,417,449,410,538,413,417,414,410,588,541,368,389,420,1349,0,0,0,0,0,0,0,0,0,0,0,0,0,0,0,0,Tense,12,?,?,?,?,Last,"year,",Kate,studied,French,in,her,spare,time.,She,now,wants,to,learn,German.,?,?,?,?,?,?,?,?,?,?,?,?,?,?,?,?
German,112,63,x,Past_Match,x,Did Sam think Jenny was ugly?,0,0,546,456,432,475,474,463,509,913,536,751,463,913,997,602,657,485,617,387,404,0,0,0,0,0,0,0,0,0,0,0,0,0,0,Tense,4,?,?,When,he,saw,"her,",Sam,thought,Jenny,was,beautiful.,"However,",he,is,far,too,nervous,to,speak,to,her.,?,?,?,?,?,?,?,?,?,?,?,?,?,?
German,112,65,m,Past_Match,m,Does Michael want to become a professional?,0,0,0,0,687,717,686,904,634,457,514,670,450,430,437,433,408,845,0,0,0,0,0,0,0,0,0,0,0,0,0,0,0,0,0,Tense,24,?,?,?,?,Last,"year,",Michael,learnt,to,play,poker.,He,now,wants,to,become,a,professional.,?,?,?,?,?,?,?,?,?,?,?,?,?,?,?,?,?
German,112,70,m,Past_Match,m,Was Barbara’s credit card bill enormous?,0,0,0,0,958,1250,853,466,675,801,580,693,519,425,386,406,786,0,0,0,0,0,0,0,0,0,0,0,0,0,0,0,0,0,0,Tense,16,?,?,?,?,At,"Christmas,",Barbara,spent,too,much,money.,Her,credit,card,bill,was,enormous.,?,?,?,?,?,?,?,?,?,?,?,?,?,?,?,?,?,?
German,113,4,x,Perfect_Mismatch,x,Has Kate studied Russian in her spare time?,0,0,0,0,1023,962,1092,789,960,797,1158,837,944,1169,988,1035,877,977,943,969,0,0,0,0,0,0,0,0,0,0,0,0,0,0,0,Tense,12,?,?,?,?,Last,"year,",Kate,has,studied,French,in,her,spare,time.,She,now,wants,to,learn,German.,?,?,?,?,?,?,?,?,?,?,?,?,?,?,?
German,113,6,x,Perfect_Mismatch,x,Has William met his mother after work?,0,0,0,1069,838,914,775,782,775,693,798,728,720,850,795,906,961,938,911,916,850,754,846,916,0,0,0,0,0,0,0,0,0,0,0,Tense,8,?,?,?,A,year,"ago,",William,has,met,his,best,friend,after,work,every,Friday.,Now,he,spends,every,night,with,his,girlfriend.,?,?,?,?,?,?,?,?,?,?,?
German,113,21,m,Perfect_Mismatch,m,Does Michael want to become a professional?,0,0,0,0,961,874,840,1169,923,703,677,695,771,767,611,668,634,689,759,0,0,0,0,0,0,0,0,0,0,0,0,0,0,0,0,Tense,24,?,?,?,?,Last,"year,",Michael,has,learnt,to,play,poker.,He,now,wants,to,become,a,professional.,?,?,?,?,?,?,?,?,?,?,?,?,?,?,?,?
German,113,30,x,Perfect_Mismatch,x,Has Sam thought Jenny was ugly?,0,0,976,857,988,874,1407,668,694,785,743,1527,846,732,702,673,664,659,609,617,602,978,0,0,0,0,0,0,0,0,0,0,0,0,0,Tense,4,?,?,When,he,saw,"her,",Sam,has,thought,Jenny,was,beautiful.,"However,",he,is,far,too,nervous,to,speak,to,her.,?,?,?,?,?,?,?,?,?,?,?,?,?
German,113,38,m,Perfect_Mismatch,m,Was Barbara’s credit card bill enormous?,0,0,0,0,867,837,1048,688,1015,786,1001,962,728,548,870,1017,483,637,0,0,0,0,0,0,0,0,0,0,0,0,0,0,0,0,0,Tense,16,?,?,?,?,At,"Christmas,",Barbara,has,spent,too,much,money.,Her,credit,card,bill,was,enormous.,?,?,?,?,?,?,?,?,?,?,?,?,?,?,?,?,?
German,113,81,m,Perfect_Mismatch,m,Did Jerry want to be a millionaire?,0,0,684,1039,640,725,638,526,557,890,712,461,825,662,686,618,508,450,635,0,0,0,0,0,0,0,0,0,0,0,0,0,0,0,0,Tense,20,?,?,When,he,finished,"university,",Jerry,has,thought,about,starting,a,business.,He,wanted,to,be,a,millionaire.,?,?,?,?,?,?,?,?,?,?,?,?,?,?,?,?
German,113,9,m,Perfect_Match,m,Has Mark seen the film three times?,0,0,0,1475,675,806,937,1282,833,837,657,755,784,816,730,754,721,859,0,0,0,0,0,0,0,0,0,0,0,0,0,0,0,0,0,Tense,7,?,?,?,Since,last,"Friday,",Mark,has,seen,the,same,film,three,times.,He,really,loved,it.,?,?,?,?,?,?,?,?,?,?,?,?,?,?,?,?,?
German,113,33,x,Perfect_Match,x,Does Ben pay the same amount for his insurance? ,0,0,0,0,646,937,1036,719,871,1022,819,729,798,928,917,623,599,510,474,482,789,0,0,0,0,0,0,0,0,0,0,0,0,0,0,Tense,23,?,?,?,?,Since,"February,",Ben,has,crashed,his,car,four,times.,He,now,pays,a,lot,for,his,insurance.,?,?,?,?,?,?,?,?,?,?,?,?,?,?
German,113,35,x,Perfect_Match,x,Does Alan like baking bread now?,0,614,1252,1612,1226,809,710,870,626,567,601,568,506,601,546,519,522,504,607,0,0,0,0,0,0,0,0,0,0,0,0,0,0,0,0,Tense,19,?,Since,he,first,started,"cooking,",Alan,has,enjoyed,making,pasta,most,of,all.,He,now,likes,making,desserts.,?,?,?,?,?,?,?,?,?,?,?,?,?,?,?,?
German,113,37,m,Perfect_Match,m,Has Tom felt very unwell?,0,586,838,654,628,823,614,609,577,489,629,565,581,477,531,529,528,536,0,0,0,0,0,0,0,0,0,0,0,0,0,0,0,0,0,Tense,11,?,For,the,last,three,"days,",Tom,has,felt,very,unwell.,He,could,not,even,go,to,work.,?,?,?,?,?,?,?,?,?,?,?,?,?,?,?,?,?
German,113,51,x,Perfect_Match,x,Has the aunt visited our house?,834,844,979,912,681,468,604,467,706,541,483,761,919,480,567,565,0,0,0,0,0,0,0,0,0,0,0,0,0,0,0,0,0,0,0,Tense,3,Since,he,moved,"in,",my,old,neighbor,has,visited,our,house.,He,brought,us,a,cake.,?,?,?,?,?,?,?,?,?,?,?,?,?,?,?,?,?,?,?
German,113,79,m,Perfect_Match,m,Did Bert want to enter into a gardening competition?,0,0,0,0,671,747,456,657,484,528,716,485,494,400,793,690,413,418,648,468,532,551,0,0,0,0,0,0,0,0,0,0,0,0,0,Tense,15,?,?,?,?,Since,"spring,",Bert,has,planted,many,roses,in,the,garden.,He,wanted,to,enter,into,a,gardening,competition.,?,?,?,?,?,?,?,?,?,?,?,?,?
German,113,16,m,Past_Mismatch,m,Did Jenny want to escape from her life?,0,704,1507,771,652,739,738,763,668,691,734,644,762,780,697,639,682,775,0,0,0,0,0,0,0,0,0,0,0,0,0,0,0,0,0,Tense,10,?,Since,her,baby,was,"born,",Jenny,wanted,to,escape,from,her,life.,She,was,very,stressed,out.,?,?,?,?,?,?,?,?,?,?,?,?,?,?,?,?,?
German,113,40,x,Past_Mismatch,x,Does Christine still like Gary?,0,0,0,750,929,889,982,560,920,904,919,895,801,630,465,702,0,0,0,0,0,0,0,0,0,0,0,0,0,0,0,0,0,0,0,Tense,22,?,?,?,For,months,"now,",Christine,wanted,to,marry,Gary.,Now,she,finds,him,unpleasant.,?,?,?,?,?,?,?,?,?,?,?,?,?,?,?,?,?,?,?
German,113,48,m,Past_Mismatch,m,Did the band sell a million records?,0,0,744,908,875,533,812,570,420,1145,590,708,594,539,825,0,0,0,0,0,0,0,0,0,0,0,0,0,0,0,0,0,0,0,0,Tense,14,?,?,Since,the,"beginning,",the,band,was,very,successful.,They,sold,a,million,records.,?,?,?,?,?,?,?,?,?,?,?,?,?,?,?,?,?,?,?,?
German,113,61,m,Past_Mismatch,m,Did Brenda want to become an actress?,784,774,908,798,533,617,892,867,1071,1015,528,1147,1219,575,810,684,668,721,0,0,0,0,0,0,0,0,0,0,0,0,0,0,0,0,0,Tense,6,Since,she,was,ten,years,"old,",Brenda,wanted,to,be,an,actress.,She,now,works,in,a,hospital.,?,?,?,?,?,?,?,?,?,?,?,?,?,?,?,?,?
German,113,69,x,Past_Mismatch,x,Is the army a safe profession?,0,0,794,870,687,722,833,890,784,576,491,660,699,675,648,502,683,0,0,0,0,0,0,0,0,0,0,0,0,0,0,0,0,0,0,Tense,18,?,?,For,many,years,"now,",Judith,thought,about,joining,the,army.,It,is,a,dangerous,profession.,?,?,?,?,?,?,?,?,?,?,?,?,?,?,?,?,?,?
German,113,83,x,Past_Mismatch,m,Did the cat eat only fish?,0,0,631,677,704,390,725,750,530,710,825,388,556,510,886,0,0,0,0,0,0,0,0,0,0,0,0,0,0,0,0,0,0,0,0,Tense,2,?,?,Since,last,"week,",the,cat,ate,only,fish.,She,now,also,eats,meat.,?,?,?,?,?,?,?,?,?,?,?,?,?,?,?,?,?,?,?,?
German,113,12,x,Past_Match,x,Does Paul want to go out with only one woman?,0,0,0,709,709,764,713,796,642,614,1056,707,697,761,638,695,669,671,644,592,0,0,0,0,0,0,0,0,0,0,0,0,0,0,0,Tense,17,?,?,?,On,his,"birthday,",Paul,met,two,lovely,women.,He,wants,to,go,out,with,both,of,them.,?,?,?,?,?,?,?,?,?,?,?,?,?,?,?
German,113,32,x,Past_Match,x,Did James go running every day?,0,0,0,0,797,776,731,741,978,889,942,803,754,921,866,642,586,915,0,0,0,0,0,0,0,0,0,0,0,0,0,0,0,0,0,Tense,5,?,?,?,?,Last,"week,",James,went,swimming,every,day.,Now,he,is,getting,bored,of,it.,?,?,?,?,?,?,?,?,?,?,?,?,?,?,?,?,?
German,113,47,m,Past_Match,m,Did Joe like Mary’s old school-friends?,0,0,0,0,661,570,766,660,662,669,729,1332,1024,661,728,639,841,718,0,0,0,0,0,0,0,0,0,0,0,0,0,0,0,0,0,Tense,1,?,?,?,?,At,"first,",Joe,liked,Mary’s,old,school-friends.,He,does,not,think,they,are,boring.,?,?,?,?,?,?,?,?,?,?,?,?,?,?,?,?,?
German,113,58,x,Past_Match,x,Was Matt a successful musician?,0,0,687,809,889,769,756,684,448,520,724,567,517,456,688,444,460,655,0,0,0,0,0,0,0,0,0,0,0,0,0,0,0,0,0,Tense,9,?,?,Once,many,years,"ago,",Matt,was,a,successful,businessman.,He,now,feels,unsatisfied,with,his,life.,?,?,?,?,?,?,?,?,?,?,?,?,?,?,?,?,?
German,113,70,m,Past_Match,m,Did Sandra think about quitting her job?,0,0,0,0,497,946,834,913,854,1112,703,726,568,894,714,880,0,0,0,0,0,0,0,0,0,0,0,0,0,0,0,0,0,0,0,Tense,21,?,?,?,?,Last,"month,",Sandra,felt,unhappy,at,work.,She,even,thought,about,leaving.,?,?,?,?,?,?,?,?,?,?,?,?,?,?,?,?,?,?,?
German,113,84,x,Past_Match,x,Is Emma’s work still exciting?,555,857,670,478,981,528,538,536,474,521,528,731,525,434,438,469,496,429,0,0,0,0,0,0,0,0,0,0,0,0,0,0,0,0,0,Tense,13,When,she,first,started,her,"job,",Emma,loved,the,work,very,much.,It,is,not,very,exciting,now.,?,?,?,?,?,?,?,?,?,?,?,?,?,?,?,?,?
German,114,26,m,Perfect_Mismatch,m,Has Joe liked Mary’s old school-friends?,0,0,0,0,173,181,158,197,195,174,220,204,340,189,216,212,203,221,215,0,0,0,0,0,0,0,0,0,0,0,0,0,0,0,0,Tense,1,?,?,?,?,At,"first,",Joe,has,liked,Mary’s,old,school-friends.,He,does,not,think,they,are,boring.,?,?,?,?,?,?,?,?,?,?,?,?,?,?,?,?
German,114,47,m,Perfect_Mismatch,m,Did Sandra think about quitting her job?,0,0,0,0,322,188,216,191,222,219,119,173,186,190,174,226,220,0,0,0,0,0,0,0,0,0,0,0,0,0,0,0,0,0,0,Tense,21,?,?,?,?,Last,"month,",Sandra,has,felt,unhappy,at,work.,She,even,thought,about,leaving.,?,?,?,?,?,?,?,?,?,?,?,?,?,?,?,?,?,?
German,114,51,x,Perfect_Mismatch,x,Does Paul want to go out with only one woman?,0,0,0,214,175,129,182,202,239,221,227,228,234,292,226,209,189,349,181,267,253,0,0,0,0,0,0,0,0,0,0,0,0,0,0,Tense,17,?,?,?,On,his,"birthday,",Paul,has,met,two,lovely,women.,He,wants,to,go,out,with,both,of,them.,?,?,?,?,?,?,?,?,?,?,?,?,?,?
German,114,59,m,Perfect_Mismatch,x,Has Matt been a successful musician?,0,0,197,150,199,215,356,214,186,167,209,249,419,183,160,192,284,273,279,0,0,0,0,0,0,0,0,0,0,0,0,0,0,0,0,Tense,9,?,?,Once,many,years,"ago,",Matt,has,been,a,successful,businessman.,He,now,feels,unsatisfied,with,his,life.,?,?,?,?,?,?,?,?,?,?,?,?,?,?,?,?
German,114,63,x,Perfect_Mismatch,x,Is Emma’s work still exciting?,193,221,227,242,206,248,245,229,208,217,188,246,208,289,133,161,207,245,244,0,0,0,0,0,0,0,0,0,0,0,0,0,0,0,0,Tense,13,When,she,first,started,her,"job,",Emma,has,loved,the,work,very,much.,It,is,not,very,exciting,now.,?,?,?,?,?,?,?,?,?,?,?,?,?,?,?,?
German,114,67,x,Perfect_Mismatch,x,Has James gone running every day?,0,0,0,0,223,213,177,211,199,172,220,173,159,275,218,208,255,306,212,0,0,0,0,0,0,0,0,0,0,0,0,0,0,0,0,Tense,5,?,?,?,?,Last,"week,",James,has,gone,swimming,every,day.,Now,he,is,getting,bored,of,it.,?,?,?,?,?,?,?,?,?,?,?,?,?,?,?,?
German,114,15,x,Perfect_Match,x,Has William met his mother after work?,0,0,221,193,208,210,264,258,209,226,217,235,353,253,303,349,310,197,222,216,232,225,263,330,0,0,0,0,0,0,0,0,0,0,0,Tense,8,?,?,For,a,year,"now,",William,has,met,his,best,friend,after,work,every,Friday.,Now,he,spends,every,night,with,his,girlfriend.,?,?,?,?,?,?,?,?,?,?,?
German,114,27,m,Perfect_Match,m,Does Michael want to become a professional?,0,0,0,874,185,180,196,375,206,193,192,238,277,177,202,156,196,199,208,0,0,0,0,0,0,0,0,0,0,0,0,0,0,0,0,Tense,24,?,?,?,Since,the,"summer,",Michael,has,learnt,to,play,poker.,He,now,wants,to,become,a,professional.,?,?,?,?,?,?,?,?,?,?,?,?,?,?,?,?
German,114,32,m,Perfect_Match,m,Did Jerry want to be a millionaire?,0,0,187,188,205,208,199,186,192,326,115,133,152,159,171,141,169,158,168,0,0,0,0,0,0,0,0,0,0,0,0,0,0,0,0,Tense,20,?,?,Since,he,finished,"university,",Jerry,has,thought,about,starting,a,business.,He,wanted,to,be,a,millionaire.,?,?,?,?,?,?,?,?,?,?,?,?,?,?,?,?
German,114,49,m,Perfect_Match,m,Was Barbara’s credit card bill enormous?,0,0,0,0,235,189,176,173,212,201,149,152,165,280,230,263,227,207,0,0,0,0,0,0,0,0,0,0,0,0,0,0,0,0,0,Tense,16,?,?,?,?,Since,"Christmas,",Barbara,has,spent,too,much,money.,Her,credit,card,bill,was,enormous.,?,?,?,?,?,?,?,?,?,?,?,?,?,?,?,?,?
German,114,60,x,Perfect_Match,x,Has Sam thought Jenny was ugly?,0,1856,329,319,235,284,263,271,321,233,260,256,324,177,209,229,278,276,282,284,220,246,0,0,0,0,0,0,0,0,0,0,0,0,0,Tense,4,?,Since,he,first,saw,"her,",Sam,has,thought,Jenny,was,beautiful.,"However,",he,is,far,too,nervous,to,speak,to,her.,?,?,?,?,?,?,?,?,?,?,?,?,?
German,114,76,x,Perfect_Match,x,Has Kate studied Russian in her spare time?,0,0,0,208,227,164,199,202,177,170,180,197,195,302,185,157,190,157,226,181,0,0,0,0,0,0,0,0,0,0,0,0,0,0,0,Tense,12,?,?,?,Since,last,"year,",Kate,has,studied,French,in,her,spare,time.,She,now,wants,to,learn,German.,?,?,?,?,?,?,?,?,?,?,?,?,?,?,?
German,114,14,m,Past_Mismatch,m,Did Tom feel very unwell?,0,191,185,188,204,211,210,226,227,210,345,277,474,253,260,199,230,0,0,0,0,0,0,0,0,0,0,0,0,0,0,0,0,0,0,Tense,11,?,For,the,last,three,"days,",Tom,felt,very,unwell.,He,could,not,even,go,to,work.,?,?,?,?,?,?,?,?,?,?,?,?,?,?,?,?,?,?
German,114,17,x,Past_Mismatch,x,Did the aunt visit our house?,217,201,155,149,283,199,184,299,177,263,264,187,266,204,218,0,0,0,0,0,0,0,0,0,0,0,0,0,0,0,0,0,0,0,0,Tense,3,Since,he,moved,"in,",my,old,neighbor,visited,our,house.,He,brought,us,a,cake.,?,?,?,?,?,?,?,?,?,?,?,?,?,?,?,?,?,?,?,?
German,114,36,m,Past_Mismatch,m,Did Mark see the film three times?,0,0,0,192,179,55,194,875,299,205,194,235,128,166,256,402,213,0,0,0,0,0,0,0,0,0,0,0,0,0,0,0,0,0,0,Tense,7,?,?,?,Since,last,"Friday,",Mark,saw,the,same,film,three,times.,He,really,loved,it.,?,?,?,?,?,?,?,?,?,?,?,?,?,?,?,?,?,?
German,114,46,x,Past_Mismatch,x,Does Ben pay the same amount for his insurance? ,0,0,0,0,220,354,229,213,222,221,409,228,197,204,207,202,242,267,203,395,0,0,0,0,0,0,0,0,0,0,0,0,0,0,0,Tense,23,?,?,?,?,Since,"February,",Ben,crashed,his,car,four,times.,He,now,pays,a,lot,for,his,insurance.,?,?,?,?,?,?,?,?,?,?,?,?,?,?,?
German,114,81,m,Past_Mismatch,m,Did Bert want to enter into a gardening competition?,0,0,0,0,163,154,192,261,207,266,327,281,255,370,277,316,200,199,201,174,167,0,0,0,0,0,0,0,0,0,0,0,0,0,0,Tense,15,?,?,?,?,Since,"spring,",Bert,planted,many,roses,in,the,garden.,He,wanted,to,enter,into,a,gardening,competition.,?,?,?,?,?,?,?,?,?,?,?,?,?,?
German,114,82,x,Past_Mismatch,x,Does Alan like baking bread now?,0,273,175,214,181,195,180,211,229,263,233,198,273,253,203,173,174,231,0,0,0,0,0,0,0,0,0,0,0,0,0,0,0,0,0,Tense,19,?,Since,he,first,started,"cooking,",Alan,enjoyed,making,pasta,most,of,all.,He,now,likes,making,desserts.,?,?,?,?,?,?,?,?,?,?,?,?,?,?,?,?,?
German,114,5,m,Past_Match,m,Did the cat eat only fish?,0,0,0,0,264,241,284,226,267,312,528,387,289,238,288,0,0,0,0,0,0,0,0,0,0,0,0,0,0,0,0,0,0,0,0,Tense,2,?,?,?,?,"Initially,",the,cat,ate,only,fish.,She,now,also,eats,meat.,?,?,?,?,?,?,?,?,?,?,?,?,?,?,?,?,?,?,?,?
German,114,8,m,Past_Match,m,Did Jenny want to escape from her life?,0,685,243,235,265,285,289,269,334,304,284,303,265,335,256,271,355,373,0,0,0,0,0,0,0,0,0,0,0,0,0,0,0,0,0,Tense,10,?,Before,her,baby,was,"born,",Jenny,wanted,to,escape,from,her,life.,She,was,very,stressed,out.,?,?,?,?,?,?,?,?,?,?,?,?,?,?,?,?,?
German,114,13,m,Past_Match,m,Did Brenda want to become an actress?,214,166,193,200,195,215,189,238,222,235,308,223,330,219,202,218,202,239,0,0,0,0,0,0,0,0,0,0,0,0,0,0,0,0,0,Tense,6,When,she,was,ten,years,"old,",Brenda,wanted,to,be,an,actress.,She,now,works,in,a,hospital.,?,?,?,?,?,?,?,?,?,?,?,?,?,?,?,?,?
German,114,31,x,Past_Match,x,Does Christine still like Gary?,0,0,0,0,228,190,157,235,284,215,237,216,240,218,188,390,0,0,0,0,0,0,0,0,0,0,0,0,0,0,0,0,0,0,0,Tense,22,?,?,?,?,At,"first,",Christine,wanted,to,marry,Gary.,Now,she,finds,him,unpleasant.,?,?,?,?,?,?,?,?,?,?,?,?,?,?,?,?,?,?,?
German,114,41,x,Past_Match,x,Is the army a safe profession?,0,0,0,229,169,192,240,233,220,394,207,202,204,212,151,175,181,0,0,0,0,0,0,0,0,0,0,0,0,0,0,0,0,0,0,Tense,18,?,?,?,Many,years,"ago,",Judith,thought,about,joining,the,army.,It,is,a,dangerous,profession.,?,?,?,?,?,?,?,?,?,?,?,?,?,?,?,?,?,?
German,114,56,m,Past_Match,m,Did the band sell a million records?,0,0,0,0,255,905,243,203,210,210,336,270,237,200,308,0,0,0,0,0,0,0,0,0,0,0,0,0,0,0,0,0,0,0,0,Tense,14,?,?,?,?,"Initially,",the,band,was,very,successful.,They,sold,a,million,records.,?,?,?,?,?,?,?,?,?,?,?,?,?,?,?,?,?,?,?,?
German,117,1,x,Perfect_Mismatch,x,Has William met his mother after work?,0,0,0,419,387,393,408,366,442,399,461,359,427,403,439,820,624,383,427,419,935,362,374,460,0,0,0,0,0,0,0,0,0,0,0,Tense,8,?,?,?,A,year,"ago,",William,has,met,his,best,friend,after,work,every,Friday.,Now,he,spends,every,night,with,his,girlfriend.,?,?,?,?,?,?,?,?,?,?,?
German,117,26,x,Perfect_Mismatch,x,Has Kate studied Russian in her spare time?,0,0,0,0,338,291,259,284,254,352,253,259,232,253,262,236,309,286,296,380,0,0,0,0,0,0,0,0,0,0,0,0,0,0,0,Tense,12,?,?,?,?,Last,"year,",Kate,has,studied,French,in,her,spare,time.,She,now,wants,to,learn,German.,?,?,?,?,?,?,?,?,?,?,?,?,?,?,?
German,117,28,x,Perfect_Mismatch,x,Has Sam thought Jenny was ugly?,0,0,293,305,289,253,249,274,325,285,334,404,356,270,439,297,313,312,300,303,257,323,0,0,0,0,0,0,0,0,0,0,0,0,0,Tense,4,?,?,When,he,saw,"her,",Sam,has,thought,Jenny,was,beautiful.,"However,",he,is,far,too,nervous,to,speak,to,her.,?,?,?,?,?,?,?,?,?,?,?,?,?
German,117,29,m,Perfect_Mismatch,m,Was Barbara’s credit card bill enormous?,0,0,0,0,301,302,263,328,293,288,305,290,294,254,300,253,284,322,0,0,0,0,0,0,0,0,0,0,0,0,0,0,0,0,0,Tense,16,?,?,?,?,At,"Christmas,",Barbara,has,spent,too,much,money.,Her,credit,card,bill,was,enormous.,?,?,?,?,?,?,?,?,?,?,?,?,?,?,?,?,?
German,117,30,m,Perfect_Mismatch,m,Does Michael want to become a professional?,0,0,0,0,290,276,263,296,260,294,288,328,266,352,337,293,275,271,366,0,0,0,0,0,0,0,0,0,0,0,0,0,0,0,0,Tense,24,?,?,?,?,Last,"year,",Michael,has,learnt,to,play,poker.,He,now,wants,to,become,a,professional.,?,?,?,?,?,?,?,?,?,?,?,?,?,?,?,?
German,117,82,m,Perfect_Mismatch,m,Did Jerry want to be a millionaire?,0,0,227,206,307,341,244,248,173,303,378,303,262,267,242,214,280,379,405,0,0,0,0,0,0,0,0,0,0,0,0,0,0,0,0,Tense,20,?,?,When,he,finished,"university,",Jerry,has,thought,about,starting,a,business.,He,wanted,to,be,a,millionaire.,?,?,?,?,?,?,?,?,?,?,?,?,?,?,?,?
German,117,5,x,Perfect_Match,x,Does Alan like baking bread now?,0,396,400,370,367,377,371,384,432,405,408,394,368,373,353,369,410,465,542,0,0,0,0,0,0,0,0,0,0,0,0,0,0,0,0,Tense,19,?,Since,he,first,started,"cooking,",Alan,has,enjoyed,making,pasta,most,of,all.,He,now,likes,making,desserts.,?,?,?,?,?,?,?,?,?,?,?,?,?,?,?,?
German,117,10,x,Perfect_Match,x,Has the aunt visited our house?,345,369,395,375,363,389,510,368,413,774,393,436,383,391,393,399,0,0,0,0,0,0,0,0,0,0,0,0,0,0,0,0,0,0,0,Tense,3,Since,he,moved,"in,",my,old,neighbor,has,visited,our,house.,He,brought,us,a,cake.,?,?,?,?,?,?,?,?,?,?,?,?,?,?,?,?,?,?,?
German,117,27,m,Perfect_Match,m,Has Mark seen the film three times?,0,0,0,325,267,295,288,272,279,254,250,275,279,288,301,260,276,306,0,0,0,0,0,0,0,0,0,0,0,0,0,0,0,0,0,Tense,7,?,?,?,Since,last,"Friday,",Mark,has,seen,the,same,film,three,times.,He,really,loved,it.,?,?,?,?,?,?,?,?,?,?,?,?,?,?,?,?,?
German,117,37,x,Perfect_Match,x,Does Ben pay the same amount for his insurance? ,0,0,0,0,258,281,289,266,271,287,299,323,317,444,263,315,326,267,317,250,465,0,0,0,0,0,0,0,0,0,0,0,0,0,0,Tense,23,?,?,?,?,Since,"February,",Ben,has,crashed,his,car,four,times.,He,now,pays,a,lot,for,his,insurance.,?,?,?,?,?,?,?,?,?,?,?,?,?,?
German,117,60,m,Perfect_Match,m,Did Bert want to enter into a gardening competition?,0,0,0,0,206,222,209,222,221,223,268,311,255,312,272,218,210,307,233,199,275,287,0,0,0,0,0,0,0,0,0,0,0,0,0,Tense,15,?,?,?,?,Since,"spring,",Bert,has,planted,many,roses,in,the,garden.,He,wanted,to,enter,into,a,gardening,competition.,?,?,?,?,?,?,?,?,?,?,?,?,?
German,117,73,m,Perfect_Match,m,Has Tom felt very unwell?,0,247,213,248,295,220,209,242,218,218,238,237,257,199,235,231,239,267,0,0,0,0,0,0,0,0,0,0,0,0,0,0,0,0,0,Tense,11,?,For,the,last,three,"days,",Tom,has,felt,very,unwell.,He,could,not,even,go,to,work.,?,?,?,?,?,?,?,?,?,?,?,?,?,?,?,?,?
German,117,21,m,Past_Mismatch,m,Did Jenny want to escape from her life?,0,784,272,329,286,315,294,359,342,850,403,404,469,387,309,398,461,340,0,0,0,0,0,0,0,0,0,0,0,0,0,0,0,0,0,Tense,10,?,Since,her,baby,was,"born,",Jenny,wanted,to,escape,from,her,life.,She,was,very,stressed,out.,?,?,?,?,?,?,?,?,?,?,?,?,?,?,?,?,?
German,117,34,x,Past_Mismatch,x,Is the army a safe profession?,0,0,276,297,313,305,313,306,303,375,300,290,265,263,308,321,286,0,0,0,0,0,0,0,0,0,0,0,0,0,0,0,0,0,0,Tense,18,?,?,For,many,years,"now,",Judith,thought,about,joining,the,army.,It,is,a,dangerous,profession.,?,?,?,?,?,?,?,?,?,?,?,?,?,?,?,?,?,?
German,117,46,m,Past_Mismatch,m,Did the cat eat only fish?,0,0,239,314,245,211,275,245,267,264,325,264,418,281,322,0,0,0,0,0,0,0,0,0,0,0,0,0,0,0,0,0,0,0,0,Tense,2,?,?,Since,last,"week,",the,cat,ate,only,fish.,She,now,also,eats,meat.,?,?,?,?,?,?,?,?,?,?,?,?,?,?,?,?,?,?,?,?
German,117,52,m,Past_Mismatch,m,Did the band sell a million records?,0,0,399,450,363,357,302,259,195,241,266,215,251,242,273,0,0,0,0,0,0,0,0,0,0,0,0,0,0,0,0,0,0,0,0,Tense,14,?,?,Since,the,"beginning,",the,band,was,very,successful.,They,sold,a,million,records.,?,?,?,?,?,?,?,?,?,?,?,?,?,?,?,?,?,?,?,?
German,117,67,m,Past_Mismatch,m,Did Brenda want to become an actress?,219,209,226,220,202,204,207,224,255,188,288,233,245,227,191,260,219,283,0,0,0,0,0,0,0,0,0,0,0,0,0,0,0,0,0,Tense,6,Since,she,was,ten,years,"old,",Brenda,wanted,to,be,an,actress.,She,now,works,in,a,hospital.,?,?,?,?,?,?,?,?,?,?,?,?,?,?,?,?,?
German,117,77,x,Past_Mismatch,x,Does Christine still like Gary?,0,0,0,336,213,275,274,471,228,196,192,344,186,232,269,435,0,0,0,0,0,0,0,0,0,0,0,0,0,0,0,0,0,0,0,Tense,22,?,?,?,For,months,"now,",Christine,wanted,to,marry,Gary.,Now,she,finds,him,unpleasant.,?,?,?,?,?,?,?,?,?,?,?,?,?,?,?,?,?,?,?
German,117,3,x,Past_Match,x,Is Emma’s work still exciting?,423,356,335,353,359,337,353,367,488,409,410,606,380,353,383,432,406,379,0,0,0,0,0,0,0,0,0,0,0,0,0,0,0,0,0,Tense,13,When,she,first,started,her,"job,",Emma,loved,the,work,very,much.,It,is,not,very,exciting,now.,?,?,?,?,?,?,?,?,?,?,?,?,?,?,?,?,?
German,117,17,x,Past_Match,x,Does Paul want to go out with only one woman?,0,0,0,358,344,383,322,351,323,392,339,338,418,359,298,330,354,360,571,379,0,0,0,0,0,0,0,0,0,0,0,0,0,0,0,Tense,17,?,?,?,On,his,"birthday,",Paul,met,two,lovely,women.,He,wants,to,go,out,with,both,of,them.,?,?,?,?,?,?,?,?,?,?,?,?,?,?,?
German,117,65,x,Past_Match,x,Did James go running every day?,0,0,0,0,227,249,213,257,236,237,232,245,246,236,241,250,275,264,0,0,0,0,0,0,0,0,0,0,0,0,0,0,0,0,0,Tense,5,?,?,?,?,Last,"week,",James,went,swimming,every,day.,Now,he,is,getting,bored,of,it.,?,?,?,?,?,?,?,?,?,?,?,?,?,?,?,?,?
German,117,75,m,Past_Match,m,Did Sandra think about quitting her job?,0,0,0,0,183,237,202,250,214,326,243,305,300,244,249,242,0,0,0,0,0,0,0,0,0,0,0,0,0,0,0,0,0,0,0,Tense,21,?,?,?,?,Last,"month,",Sandra,felt,unhappy,at,work.,She,even,thought,about,leaving.,?,?,?,?,?,?,?,?,?,?,?,?,?,?,?,?,?,?,?
German,117,76,m,Past_Match,m,Did Joe like Mary’s old school-friends?,0,0,0,0,197,170,284,204,239,257,277,235,228,204,237,318,227,251,0,0,0,0,0,0,0,0,0,0,0,0,0,0,0,0,0,Tense,1,?,?,?,?,At,"first,",Joe,liked,Mary’s,old,school-friends.,He,does,not,think,they,are,boring.,?,?,?,?,?,?,?,?,?,?,?,?,?,?,?,?,?
German,117,84,x,Past_Match,x,Was Matt a successful musician?,0,0,234,257,160,281,210,225,250,171,201,266,208,215,240,265,277,268,0,0,0,0,0,0,0,0,0,0,0,0,0,0,0,0,0,Tense,9,?,?,Once,many,years,"ago,",Matt,was,a,successful,businessman.,He,now,feels,unsatisfied,with,his,life.,?,?,?,?,?,?,?,?,?,?,?,?,?,?,?,?,?
German,118,17,x,Perfect_Mismatch,x,Has James gone running every day?,0,0,0,0,622,497,581,351,421,433,445,466,728,520,368,436,401,414,422,0,0,0,0,0,0,0,0,0,0,0,0,0,0,0,0,Tense,5,?,?,?,?,Last,"week,",James,has,gone,swimming,every,day.,Now,he,is,getting,bored,of,it.,?,?,?,?,?,?,?,?,?,?,?,?,?,?,?,?
German,118,23,x,Perfect_Mismatch,x,Does Paul want to go out with only one woman?,0,0,0,381,366,387,388,355,377,370,335,352,432,337,413,368,383,403,406,441,320,0,0,0,0,0,0,0,0,0,0,0,0,0,0,Tense,17,?,?,?,On,his,"birthday,",Paul,has,met,two,lovely,women.,He,wants,to,go,out,with,both,of,them.,?,?,?,?,?,?,?,?,?,?,?,?,?,?
German,118,25,x,Perfect_Mismatch,x,Is Emma’s work still exciting?,421,497,565,328,342,473,515,389,494,431,437,544,357,482,332,373,360,326,398,0,0,0,0,0,0,0,0,0,0,0,0,0,0,0,0,Tense,13,When,she,first,started,her,"job,",Emma,has,loved,the,work,very,much.,It,is,not,very,exciting,now.,?,?,?,?,?,?,?,?,?,?,?,?,?,?,?,?
German,118,58,m,Perfect_Mismatch,m,Did Sandra think about quitting her job?,0,0,0,0,332,386,408,369,368,410,409,351,657,391,378,380,548,0,0,0,0,0,0,0,0,0,0,0,0,0,0,0,0,0,0,Tense,21,?,?,?,?,Last,"month,",Sandra,has,felt,unhappy,at,work.,She,even,thought,about,leaving.,?,?,?,?,?,?,?,?,?,?,?,?,?,?,?,?,?,?
German,118,59,x,Perfect_Mismatch,x,Has Matt been a successful musician?,0,0,432,428,450,375,410,298,378,350,512,315,455,325,380,362,544,455,465,0,0,0,0,0,0,0,0,0,0,0,0,0,0,0,0,Tense,9,?,?,Once,many,years,"ago,",Matt,has,been,a,successful,businessman.,He,now,feels,unsatisfied,with,his,life.,?,?,?,?,?,?,?,?,?,?,?,?,?,?,?,?
German,118,68,m,Perfect_Mismatch,m,Has Joe liked Mary’s old school-friends?,0,0,0,0,393,302,309,280,278,346,268,425,476,423,353,410,454,371,372,0,0,0,0,0,0,0,0,0,0,0,0,0,0,0,0,Tense,1,?,?,?,?,At,"first,",Joe,has,liked,Mary’s,old,school-friends.,He,does,not,think,they,are,boring.,?,?,?,?,?,?,?,?,?,?,?,?,?,?,?,?
German,118,27,m,Perfect_Match,m,Was Barbara’s credit card bill enormous?,0,0,0,0,415,486,391,325,334,348,369,360,400,734,440,533,542,582,0,0,0,0,0,0,0,0,0,0,0,0,0,0,0,0,0,Tense,16,?,?,?,?,Since,"Christmas,",Barbara,has,spent,too,much,money.,Her,credit,card,bill,was,enormous.,?,?,?,?,?,?,?,?,?,?,?,?,?,?,?,?,?
German,118,38,x,Perfect_Match,x,Has Sam thought Jenny was ugly?,0,401,310,383,324,319,423,318,359,343,395,490,382,293,378,345,317,364,387,315,306,341,0,0,0,0,0,0,0,0,0,0,0,0,0,Tense,4,?,Since,he,first,saw,"her,",Sam,has,thought,Jenny,was,beautiful.,"However,",he,is,far,too,nervous,to,speak,to,her.,?,?,?,?,?,?,?,?,?,?,?,?,?
German,118,53,m,Perfect_Match,m,Did Jerry want to be a millionaire?,0,0,319,349,311,709,311,341,614,217,397,346,507,343,331,334,449,358,542,0,0,0,0,0,0,0,0,0,0,0,0,0,0,0,0,Tense,20,?,?,Since,he,finished,"university,",Jerry,has,thought,about,starting,a,business.,He,wanted,to,be,a,millionaire.,?,?,?,?,?,?,?,?,?,?,?,?,?,?,?,?
German,118,57,m,Perfect_Match,m,Does Michael want to become a professional?,0,0,0,368,420,509,506,414,392,356,429,826,516,407,403,394,434,475,883,0,0,0,0,0,0,0,0,0,0,0,0,0,0,0,0,Tense,24,?,?,?,Since,the,"summer,",Michael,has,learnt,to,play,poker.,He,now,wants,to,become,a,professional.,?,?,?,?,?,?,?,?,?,?,?,?,?,?,?,?
German,118,64,x,Perfect_Match,x,Has Kate studied Russian in her spare time?,0,0,0,412,334,351,252,333,451,343,375,325,367,549,403,474,414,341,443,584,0,0,0,0,0,0,0,0,0,0,0,0,0,0,0,Tense,12,?,?,?,Since,last,"year,",Kate,has,studied,French,in,her,spare,time.,She,now,wants,to,learn,German.,?,?,?,?,?,?,?,?,?,?,?,?,?,?,?
German,118,65,x,Perfect_Match,x,Has William met his mother after work?,0,0,392,315,309,398,343,349,327,378,311,354,284,412,329,341,356,299,392,369,439,302,359,558,0,0,0,0,0,0,0,0,0,0,0,Tense,8,?,?,For,a,year,"now,",William,has,met,his,best,friend,after,work,every,Friday.,Now,he,spends,every,night,with,his,girlfriend.,?,?,?,?,?,?,?,?,?,?,?
German,118,34,m,Past_Mismatch,m,Did Tom feel very unwell?,0,465,380,453,481,366,437,406,457,415,398,322,312,345,358,353,345,0,0,0,0,0,0,0,0,0,0,0,0,0,0,0,0,0,0,Tense,11,?,For,the,last,three,"days,",Tom,felt,very,unwell.,He,could,not,even,go,to,work.,?,?,?,?,?,?,?,?,?,?,?,?,?,?,?,?,?,?
German,118,55,m,Past_Mismatch,m,Did Bert want to enter into a gardening competition?,0,0,0,0,299,461,397,407,696,400,356,257,307,351,299,279,340,316,422,561,312,0,0,0,0,0,0,0,0,0,0,0,0,0,0,Tense,15,?,?,?,?,Since,"spring,",Bert,planted,many,roses,in,the,garden.,He,wanted,to,enter,into,a,gardening,competition.,?,?,?,?,?,?,?,?,?,?,?,?,?,?
German,118,70,x,Past_Mismatch,x,Does Ben pay the same amount for his insurance? ,0,0,0,0,532,669,357,467,433,463,428,446,384,320,384,407,363,369,355,561,0,0,0,0,0,0,0,0,0,0,0,0,0,0,0,Tense,23,?,?,?,?,Since,"February,",Ben,crashed,his,car,four,times.,He,now,pays,a,lot,for,his,insurance.,?,?,?,?,?,?,?,?,?,?,?,?,?,?,?
German,118,73,m,Past_Mismatch,m,Did Mark see the film three times?,0,0,0,321,361,359,324,340,316,331,361,572,264,389,347,242,381,0,0,0,0,0,0,0,0,0,0,0,0,0,0,0,0,0,0,Tense,7,?,?,?,Since,last,"Friday,",Mark,saw,the,same,film,three,times.,He,really,loved,it.,?,?,?,?,?,?,?,?,?,?,?,?,?,?,?,?,?,?
German,118,74,x,Past_Mismatch,x,Does Alan like baking bread now?,0,350,307,287,317,325,381,396,357,317,358,316,510,323,234,334,318,564,0,0,0,0,0,0,0,0,0,0,0,0,0,0,0,0,0,Tense,19,?,Since,he,first,started,"cooking,",Alan,enjoyed,making,pasta,most,of,all.,He,now,likes,making,desserts.,?,?,?,?,?,?,?,?,?,?,?,?,?,?,?,?,?
German,118,82,x,Past_Mismatch,x,Did the aunt visit our house?,494,411,827,516,543,659,625,489,484,618,444,446,375,428,402,0,0,0,0,0,0,0,0,0,0,0,0,0,0,0,0,0,0,0,0,Tense,3,Since,he,moved,"in,",my,old,neighbor,visited,our,house.,He,brought,us,a,cake.,?,?,?,?,?,?,?,?,?,?,?,?,?,?,?,?,?,?,?,?
German,118,2,x,Past_Match,x,Does Christine still like Gary?,0,0,0,0,589,566,489,504,404,481,455,513,408,410,430,541,0,0,0,0,0,0,0,0,0,0,0,0,0,0,0,0,0,0,0,Tense,22,?,?,?,?,At,"first,",Christine,wanted,to,marry,Gary.,Now,she,finds,him,unpleasant.,?,?,?,?,?,?,?,?,?,?,?,?,?,?,?,?,?,?,?
German,118,11,m,Past_Match,m,Did the band sell a million records?,0,0,0,0,357,393,385,397,415,552,427,401,395,399,375,0,0,0,0,0,0,0,0,0,0,0,0,0,0,0,0,0,0,0,0,Tense,14,?,?,?,?,"Initially,",the,band,was,very,successful.,They,sold,a,million,records.,?,?,?,?,?,?,?,?,?,?,?,?,?,?,?,?,?,?,?,?
German,118,30,x,Past_Match,m,Did Brenda want to become an actress?,413,380,387,437,381,408,342,450,469,292,373,462,350,349,387,334,360,419,0,0,0,0,0,0,0,0,0,0,0,0,0,0,0,0,0,Tense,6,When,she,was,ten,years,"old,",Brenda,wanted,to,be,an,actress.,She,now,works,in,a,hospital.,?,?,?,?,?,?,?,?,?,?,?,?,?,?,?,?,?
German,118,32,m,Past_Match,m,Did Jenny want to escape from her life?,0,363,353,391,311,323,354,351,324,364,407,325,324,395,339,305,441,370,0,0,0,0,0,0,0,0,0,0,0,0,0,0,0,0,0,Tense,10,?,Before,her,baby,was,"born,",Jenny,wanted,to,escape,from,her,life.,She,was,very,stressed,out.,?,?,?,?,?,?,?,?,?,?,?,?,?,?,?,?,?
German,118,33,m,Past_Match,m,Did the cat eat only fish?,0,0,0,0,411,426,340,304,377,412,383,332,303,367,421,0,0,0,0,0,0,0,0,0,0,0,0,0,0,0,0,0,0,0,0,Tense,2,?,?,?,?,"Initially,",the,cat,ate,only,fish.,She,now,also,eats,meat.,?,?,?,?,?,?,?,?,?,?,?,?,?,?,?,?,?,?,?,?
German,118,81,x,Past_Match,x,Is the army a safe profession?,0,0,0,338,401,358,533,583,500,520,740,392,452,409,453,570,987,0,0,0,0,0,0,0,0,0,0,0,0,0,0,0,0,0,0,Tense,18,?,?,?,Many,years,"ago,",Judith,thought,about,joining,the,army.,It,is,a,dangerous,profession.,?,?,?,?,?,?,?,?,?,?,?,?,?,?,?,?,?,?
German,119,2,m,Perfect_Mismatch,m,Has Brenda wanted to become an actress?,379,303,291,277,309,292,282,287,375,378,320,220,248,451,286,292,227,277,264,0,0,0,0,0,0,0,0,0,0,0,0,0,0,0,0,Tense,6,When,she,was,ten,years,"old,",Brenda,has,wanted,to,be,an,actress.,She,now,works,in,a,hospital.,?,?,?,?,?,?,?,?,?,?,?,?,?,?,?,?
German,119,12,m,Perfect_Mismatch,m,Has Jenny wanted to escape from her life?,0,437,538,715,300,328,410,460,225,922,283,312,314,271,374,326,333,366,571,0,0,0,0,0,0,0,0,0,0,0,0,0,0,0,0,Tense,10,?,Before,her,baby,was,"born,",Jenny,has,wanted,to,escape,from,her,life.,She,was,very,stressed,out.,?,?,?,?,?,?,?,?,?,?,?,?,?,?,?,?
German,119,17,m,Perfect_Mismatch,m,Did the band sell a million records?,0,0,0,0,2121,356,353,279,264,298,278,596,285,471,277,322,0,0,0,0,0,0,0,0,0,0,0,0,0,0,0,0,0,0,0,Tense,14,?,?,?,?,"Initially,",the,band,has,been,very,successful.,They,sold,a,million,records.,?,?,?,?,?,?,?,?,?,?,?,?,?,?,?,?,?,?,?
German,119,32,x,Perfect_Mismatch,x,Does Christine still like Gary?,0,0,0,0,377,194,1445,409,860,383,269,280,400,441,301,554,384,0,0,0,0,0,0,0,0,0,0,0,0,0,0,0,0,0,0,Tense,22,?,?,?,?,At,"first,",Christine,has,wanted,to,marry,Gary.,Now,she,finds,him,unpleasant.,?,?,?,?,?,?,?,?,?,?,?,?,?,?,?,?,?,?
German,119,39,x,Perfect_Mismatch,x,Is the army a safe profession?,0,0,0,803,360,315,288,288,260,748,422,277,261,276,568,312,300,348,0,0,0,0,0,0,0,0,0,0,0,0,0,0,0,0,0,Tense,18,?,?,?,Many,years,"ago,",Judith,has,thought,about,joining,the,army.,It,is,a,dangerous,profession.,?,?,?,?,?,?,?,?,?,?,?,?,?,?,?,?,?
German,119,50,m,Perfect_Mismatch,m,Has the cat eaten only fish?,0,0,0,0,456,287,243,427,290,412,322,556,1396,367,318,351,0,0,0,0,0,0,0,0,0,0,0,0,0,0,0,0,0,0,0,Tense,2,?,?,?,?,"Initially,",the,cat,has,eaten,only,fish.,She,now,also,eats,meat.,?,?,?,?,?,?,?,?,?,?,?,?,?,?,?,?,?,?,?
German,119,6,m,Perfect_Match,m,Did Sandra think about quitting her job?,0,0,300,295,292,298,272,260,264,453,262,274,262,245,274,286,254,0,0,0,0,0,0,0,0,0,0,0,0,0,0,0,0,0,0,Tense,21,?,?,For,the,last,"month,",Sandra,has,felt,unhappy,at,work.,She,even,thought,about,leaving.,?,?,?,?,?,?,?,?,?,?,?,?,?,?,?,?,?,?
German,119,31,x,Perfect_Match,x,Is Emma’s work still exciting?,1372,290,738,610,1519,310,324,278,315,302,341,248,685,251,310,386,225,217,397,0,0,0,0,0,0,0,0,0,0,0,0,0,0,0,0,Tense,13,Since,she,first,started,her,"job,",Emma,has,loved,the,work,very,much.,It,is,not,very,exciting,now.,?,?,?,?,?,?,?,?,?,?,?,?,?,?,?,?
German,119,65,x,Perfect_Match,x,Has James gone running every day?,0,0,0,735,249,297,336,253,467,277,455,260,274,274,295,268,310,268,332,0,0,0,0,0,0,0,0,0,0,0,0,0,0,0,0,Tense,5,?,?,?,Since,the,"summer,",James,has,gone,swimming,every,day.,Now,he,is,getting,bored,of,it.,?,?,?,?,?,?,?,?,?,?,?,?,?,?,?,?
German,119,67,m,Perfect_Match,m,Has Joe liked Mary’s old school-friends?,0,0,523,253,244,413,686,274,223,299,269,1491,299,320,331,304,266,275,339,0,0,0,0,0,0,0,0,0,0,0,0,0,0,0,0,Tense,1,?,?,Since,he,met,"them,",Joe,has,liked,Mary’s,old,school-friends.,He,does,not,think,they,are,boring.,?,?,?,?,?,?,?,?,?,?,?,?,?,?,?,?
German,119,70,x,Perfect_Match,x,Does Paul want to go out with only one woman?,0,0,0,370,644,286,306,291,623,288,296,298,311,261,324,294,259,308,358,315,292,0,0,0,0,0,0,0,0,0,0,0,0,0,0,Tense,17,?,?,?,Since,his,"birthday,",Paul,has,met,two,lovely,women.,He,wants,to,go,out,with,both,of,them.,?,?,?,?,?,?,?,?,?,?,?,?,?,?
German,119,73,x,Perfect_Match,x,Has Matt been a successful musician?,0,0,1284,325,900,467,343,349,570,260,319,326,377,374,282,308,500,337,321,0,0,0,0,0,0,0,0,0,0,0,0,0,0,0,0,Tense,9,?,?,Since,he,was,"twenty,",Matt,has,been,a,successful,businessman.,He,now,feels,unsatisfied,with,his,life.,?,?,?,?,?,?,?,?,?,?,?,?,?,?,?,?
German,119,4,m,Past_Mismatch,m,Did Jerry want to be a millionaire?,0,0,361,292,1304,292,349,334,477,347,541,464,341,281,304,274,287,478,0,0,0,0,0,0,0,0,0,0,0,0,0,0,0,0,0,Tense,20,?,?,Since,he,finished,"university,",Jerry,thought,about,starting,a,business.,He,wanted,to,be,a,millionaire.,?,?,?,?,?,?,?,?,?,?,?,?,?,?,?,?,?
German,119,30,x,Past_Mismatch,x,Did William meet his mother after work?,0,0,471,296,322,245,500,270,262,275,282,233,347,475,305,516,271,283,543,257,300,285,362,0,0,0,0,0,0,0,0,0,0,0,0,Tense,8,?,?,For,a,year,"now,",William,met,his,best,friend,after,work,every,Friday.,Now,he,spends,every,night,with,his,girlfriend.,?,?,?,?,?,?,?,?,?,?,?,?
German,119,43,m,Past_Mismatch,m,Does Michael want to become a professional?,0,0,0,337,295,245,607,331,219,279,372,622,217,236,261,251,256,243,0,0,0,0,0,0,0,0,0,0,0,0,0,0,0,0,0,Tense,24,?,?,?,Since,the,"summer,",Michael,learnt,to,play,poker.,He,now,wants,to,become,a,professional.,?,?,?,?,?,?,?,?,?,?,?,?,?,?,?,?,?
German,119,57,x,Past_Mismatch,x,Did Sam think Jenny was ugly?,0,609,321,605,303,354,289,353,365,320,295,307,311,280,560,331,301,291,290,252,488,0,0,0,0,0,0,0,0,0,0,0,0,0,0,Tense,4,?,Since,he,first,saw,"her,",Sam,thought,Jenny,was,beautiful.,"However,",he,is,far,too,nervous,to,speak,to,her.,?,?,?,?,?,?,?,?,?,?,?,?,?,?
German,119,79,x,Past_Mismatch,x,Did Kate study Russian in her spare time?,0,0,0,1265,307,351,318,486,573,325,479,508,305,313,385,289,379,334,329,0,0,0,0,0,0,0,0,0,0,0,0,0,0,0,0,Tense,12,?,?,?,Since,last,"year,",Kate,studied,French,in,her,spare,time.,She,now,wants,to,learn,German.,?,?,?,?,?,?,?,?,?,?,?,?,?,?,?,?
German,119,80,m,Past_Mismatch,m,Was Barbara’s credit card bill enormous?,0,0,0,0,387,332,307,315,300,310,349,332,341,385,288,357,370,0,0,0,0,0,0,0,0,0,0,0,0,0,0,0,0,0,0,Tense,16,?,?,?,?,Since,"Christmas,",Barbara,spent,too,much,money.,Her,credit,card,bill,was,enormous.,?,?,?,?,?,?,?,?,?,?,?,?,?,?,?,?,?,?
German,119,3,m,Past_Match,m,Did Bert want to enter into a gardening competition?,0,0,0,0,370,936,1506,270,239,897,270,256,369,344,264,282,311,334,310,441,381,0,0,0,0,0,0,0,0,0,0,0,0,0,0,Tense,15,?,?,?,?,Last,"spring,",Bert,planted,many,roses,in,the,garden.,He,wanted,to,enter,into,a,gardening,competition.,?,?,?,?,?,?,?,?,?,?,?,?,?,?
German,119,7,m,Past_Match,m,Did Mark see the film three times?,0,0,0,0,271,264,274,236,302,254,257,227,247,290,264,229,267,0,0,0,0,0,0,0,0,0,0,0,0,0,0,0,0,0,0,Tense,7,?,?,?,?,Last,"Friday,",Mark,saw,the,same,film,three,times.,He,really,loved,it.,?,?,?,?,?,?,?,?,?,?,?,?,?,?,?,?,?,?
German,119,14,x,Past_Match,x,Did the aunt visit our house?,0,0,0,857,261,238,662,296,296,326,344,297,357,272,277,0,0,0,0,0,0,0,0,0,0,0,0,0,0,0,0,0,0,0,0,Tense,3,?,?,?,"Yesterday,",my,old,neighbor,visited,our,house.,He,brought,us,a,cake.,?,?,?,?,?,?,?,?,?,?,?,?,?,?,?,?,?,?,?,?
German,119,47,x,Past_Match,x,Does Alan like baking bread now?,0,0,0,0,359,360,306,346,293,345,469,354,348,374,349,414,346,344,366,278,610,0,0,0,0,0,0,0,0,0,0,0,0,0,0,Tense,13,?,?,?,?,When,he,first,started,"cooking,",Alan,enjoyed,making,pasta,most,of,all.,He,now,likes,making,desserts.,?,?,?,?,?,?,?,?,?,?,?,?,?,?
German,119,56,x,Past_Match,x,Does Ben pay the same amount for his insurance? ,0,0,0,0,743,458,303,531,340,285,321,419,314,1334,267,535,303,305,290,322,0,0,0,0,0,0,0,0,0,0,0,0,0,0,0,Tense,23,?,?,?,?,In,"February,",Ben,crashed,his,car,four,times.,He,now,pays,a,lot,for,his,insurance.,?,?,?,?,?,?,?,?,?,?,?,?,?,?,?
German,119,78,m,Past_Match,m,Did Tom feel very unwell?,0,0,0,401,383,424,676,337,327,418,324,658,361,309,325,546,379,0,0,0,0,0,0,0,0,0,0,0,0,0,0,0,0,0,0,Tense,11,?,?,?,Three,days,"ago,",Tom,felt,very,unwell.,He,could,not,even,go,to,work.,?,?,?,?,?,?,?,?,?,?,?,?,?,?,?,?,?,?
German,120,4,x,Perfect_Mismatch,x,Does Ben pay the same amount for his insurance? ,0,0,0,0,611,449,358,317,322,331,384,464,302,373,291,315,336,329,325,327,428,0,0,0,0,0,0,0,0,0,0,0,0,0,0,Tense,23,?,?,?,?,In,"February,",Ben,has,crashed,his,car,four,times.,He,now,pays,a,lot,for,his,insurance.,?,?,?,?,?,?,?,?,?,?,?,?,?,?
German,120,13,x,Perfect_Mismatch,x,Has the aunt visited our house?,0,0,0,726,290,286,279,292,302,351,370,317,333,287,289,264,0,0,0,0,0,0,0,0,0,0,0,0,0,0,0,0,0,0,0,Tense,3,?,?,?,"Yesterday,",my,old,neighbor,has,visited,our,house.,He,brought,us,a,cake.,?,?,?,?,?,?,?,?,?,?,?,?,?,?,?,?,?,?,?
German,120,17,m,Perfect_Mismatch,m,Has Mark seen the film three times?,0,0,0,0,277,499,365,389,258,295,334,331,330,304,334,268,291,292,0,0,0,0,0,0,0,0,0,0,0,0,0,0,0,0,0,Tense,7,?,?,?,?,Last,"Friday,",Mark,has,seen,the,same,film,three,times.,He,really,loved,it.,?,?,?,?,?,?,?,?,?,?,?,?,?,?,?,?,?
German,120,28,m,Perfect_Mismatch,m,Has Tom felt very unwell?,0,0,0,249,265,289,247,271,321,277,286,325,328,301,322,289,367,264,0,0,0,0,0,0,0,0,0,0,0,0,0,0,0,0,0,Tense,11,?,?,?,Three,days,"ago,",Tom,has,felt,very,unwell.,He,could,not,even,go,to,work.,?,?,?,?,?,?,?,?,?,?,?,?,?,?,?,?,?
German,120,57,m,Perfect_Mismatch,m,Did Bert want to enter into a gardening competition?,0,0,0,0,320,210,293,200,219,236,241,242,238,399,244,217,243,207,238,225,254,238,0,0,0,0,0,0,0,0,0,0,0,0,0,Tense,15,?,?,?,?,Last,"spring,",Bert,has,planted,many,roses,in,the,garden.,He,wanted,to,enter,into,a,gardening,competition.,?,?,?,?,?,?,?,?,?,?,?,?,?
German,120,64,m,Perfect_Mismatch,x,Does Alan like baking bread now?,0,258,210,163,201,230,222,221,227,182,218,187,195,187,194,201,201,195,183,0,0,0,0,0,0,0,0,0,0,0,0,0,0,0,0,Tense,19,?,When,he,first,started,"cooking,",Alan,has,enjoyed,making,pasta,most,of,all.,He,now,likes,making,desserts.,?,?,?,?,?,?,?,?,?,?,?,?,?,?,?,?
German,120,40,m,Perfect_Match,m,Has Jenny wanted to escape from her life?,0,286,272,285,285,276,307,236,318,289,306,279,259,315,301,261,292,267,302,0,0,0,0,0,0,0,0,0,0,0,0,0,0,0,0,Tense,10,?,Since,her,baby,was,"born,",Jenny,has,wanted,to,escape,from,her,life.,She,was,very,stressed,out.,?,?,?,?,?,?,?,?,?,?,?,?,?,?,?,?
German,120,50,m,Perfect_Match,m,Has Brenda wanted to become an actress?,290,221,215,222,213,245,234,267,242,232,210,217,235,302,292,247,255,278,203,0,0,0,0,0,0,0,0,0,0,0,0,0,0,0,0,Tense,6,Since,she,was,ten,years,"old,",Brenda,has,wanted,to,be,an,actress.,She,now,works,in,a,hospital.,?,?,?,?,?,?,?,?,?,?,?,?,?,?,?,?
German,120,54,m,Perfect_Match,m,Has the cat eaten only fish?,0,0,263,228,225,216,245,237,223,254,263,429,204,236,281,287,0,0,0,0,0,0,0,0,0,0,0,0,0,0,0,0,0,0,0,Tense,2,?,?,Since,last,"week,",the,cat,has,eaten,only,fish.,She,now,also,eats,meat.,?,?,?,?,?,?,?,?,?,?,?,?,?,?,?,?,?,?,?
German,120,56,x,Perfect_Match,x,Is the army a safe profession?,0,0,323,227,241,476,195,228,244,229,253,333,240,316,259,222,295,235,0,0,0,0,0,0,0,0,0,0,0,0,0,0,0,0,0,Tense,18,?,?,For,many,years,"now,",Judith,has,thought,about,joining,the,army.,It,is,a,dangerous,profession.,?,?,?,?,?,?,?,?,?,?,?,?,?,?,?,?,?
German,120,68,x,Perfect_Match,x,Does Christine still like Gary?,0,0,0,355,159,229,181,214,235,286,422,192,178,226,200,197,225,0,0,0,0,0,0,0,0,0,0,0,0,0,0,0,0,0,0,Tense,22,?,?,?,For,months,"now,",Christine,has,wanted,to,marry,Gary.,Now,she,finds,him,unpleasant.,?,?,?,?,?,?,?,?,?,?,?,?,?,?,?,?,?,?
German,120,72,m,Perfect_Match,m,Did the band sell a million records?,0,0,281,248,184,216,224,193,235,240,221,257,184,199,193,196,0,0,0,0,0,0,0,0,0,0,0,0,0,0,0,0,0,0,0,Tense,14,?,?,Since,the,"beginning,",the,band,has,been,very,successful.,They,sold,a,million,records.,?,?,?,?,?,?,?,?,?,?,?,?,?,?,?,?,?,?,?
German,120,19,x,Past_Mismatch,x,Did James go running every day?,0,0,0,316,346,242,336,255,293,327,255,276,290,315,425,400,323,294,0,0,0,0,0,0,0,0,0,0,0,0,0,0,0,0,0,Tense,5,?,?,?,Since,the,"summer,",James,went,swimming,every,day.,Now,he,is,getting,bored,of,it.,?,?,?,?,?,?,?,?,?,?,?,?,?,?,?,?,?
